Folder: PhDThesis/data/monolayers/nanoparticles/Ac_CoFe_C_2/xrd/NoInstrRes

Note: README.md
# PhDThesis

Color palette:
- #0EA8DF #MatNat Blau
- #EE292F #Medizin Rot
- #FAAB2D #HumWis Orange
- #76C152 #Wiwi Gruen
- #7F0128 #Rechtswis Bordeaux
- #793394 #Philo Violett

Sample Translation
- Ol-CoFe-C : DD67
- Ac-CoFe-C : AH11
- Ac-CoFe-C-YF : YF45

File: background.xy
! Data file:
! Format:
! position      background_value
       17.44560     1883.33
       17.46570     1870
       17.46570     1870
       18.62810     1712.67
       18.97880     1709.33
       19.14920     1790
       22.19050     1391.67
       23.38810     1354.33
       24.98640     1386.67
       25.78810     1392
       26.20910     1275.33
       27.46670     1483.67
       30.09740     1162
       31.80610     1159
       35.56440     1036.67
       36.22600     1030.67
       36.25100     1026.67
       38.79170      976.667
       39.21270      972.667
       40.47060      939
       40.94160      938.667
       41.65330      936
       42.12940      929.333