Folder: PhDThesis/data/colloidalCrystals/nanoparticles/vsm/postOxidationStep/rawdata/sub_and_rescale

Note: README.md
# PhDThesis

Color palette:
- #0EA8DF #MatNat Blau
- #EE292F #Medizin Rot
- #FAAB2D #HumWis Orange
- #76C152 #Wiwi Gruen
- #7F0128 #Rechtswis Bordeaux
- #793394 #Philo Violett

Sample Translation
- Ol-CoFe-C : DD67
- Ac-CoFe-C : AH11
- Ac-CoFe-C-YF : YF45

File: empty_sample_holder.xye
#Extracted data using VSM extraction tool v1.1
#Loaded parameter file: extractVSM.dat
#Desired unit of B: T
#Desired unit of M: memu
#Reading column for B: Applied Field
#Reading column for M: Raw Signal Mx
#Estimate noise level: 5e-3 memu
#Loading data from file: empty_sample_holder-Hys-00.VHD
#Save data to file: empty_sample_holder.xye
#Extraction performed at: Fri Oct 14 13:35:39 2016
#Unit of B in data: Oe
#Changing unit by multiplying with factor: 0.0001
#Unit of M in data: memu
#Applied image correction factors to M by linear interpolation of following values
#14997.0	1.0
#15246.0	1.000145
#15496.0	1.000446
#15746.0	1.000592
#15995.0	1.000892
#16246.0	1.001261
#16495.0	1.001631
#16745.0	1.002
#16995.0	1.002448
#17245.0	1.002965
#17495.0	1.003491
#17745.0	1.004009
#17994.0	1.004605
#18244.0	1.005202
#18494.0	1.006025
#18744.0	1.006702
#18994.0	1.007597

#B / T	M / memu	sM / memu	M_raw / memu	sM_raw / memu
0.0	0.0006789638	0.005	0.0006789638	0.005
0.0996	-0.1308987	0.005	-0.1308987	0.005
0.1997	-0.263319	0.005	-0.263319	0.005
0.2997	-0.4020888	0.005	-0.4020888	0.005
0.3998	-0.527603	0.005	-0.527603	0.005
0.4998	-0.6579794	0.005	-0.6579794	0.005
0.5998	-0.7890502	0.005	-0.7890502	0.005
0.6998	-0.926602	0.005	-0.926602	0.005
0.7998	-1.051684	0.005	-1.051684	0.005
0.8998	-1.185862	0.005	-1.185862	0.005
0.9998	-1.312426	0.005	-1.312426	0.005
1.0998	-1.445863	0.005	-1.445863	0.005
1.1998	-1.567825	0.005	-1.567825	0.005
1.2998	-1.701	0.005	-1.701	0.005
1.3998	-1.825325	0.005	-1.825325	0.005
1.4998	-1.95479	0.005	-1.954791	0.005
1.5998	-2.07326	0.005	-2.071408	0.005
1.6998	-2.20684	0.005	-2.201442	0.005
1.7997	-2.32735	0.005	-2.316664	0.005
1.8996	-2.44678	0.005	-2.42833	0.005
1.8003	-2.32707	0.005	-2.316357	0.005
1.7003	-2.20875	0.005	-2.20332	0.005
1.6005	-2.07639	0.005	-2.074506	0.005
1.5003	-1.94723	0.005	-1.947221	0.005
1.4003	-1.827724	0.005	-1.827724	0.005
1.3002	-1.701654	0.005	-1.701654	0.005
1.2002	-1.575023	0.005	-1.575023	0.005
1.1001	-1.44918	0.005	-1.44918	0.005
1.0002	-1.312011	0.005	-1.312011	0.005
0.9002	-1.18525	0.005	-1.18525	0.005
0.8002	-1.052382	0.005	-1.052382	0.005
0.7001	-0.9274077	0.005	-0.9274077	0.005
0.6002	-0.7944924	0.005	-0.7944924	0.005
0.5001	-0.6640447	0.005	-0.6640447	0.005
0.4002	-0.5278158	0.005	-0.5278158	0.005
0.3002	-0.3965589	0.005	-0.3965589	0.005
0.2002	-0.2612247	0.005	-0.2612247	0.005
0.1001	-0.1319539	0.005	-0.1319539	0.005
0.0002	-0.002225043	0.005	-0.002225043	0.005
-0.0997	0.1292708	0.005	0.1292708	0.005
-0.1997	0.2639733	0.005	0.2639733	0.005
-0.2998	0.3967117	0.005	0.3967117	0.005
-0.3997	0.5294736	0.005	0.5294736	0.005
-0.4998	0.6580883	0.005	0.6580883	0.005
-0.5998	0.7903033	0.005	0.7903033	0.005
-0.6998	0.9211492	0.005	0.9211492	0.005
-0.7998	1.043176	0.005	1.043176	0.005
-0.8998	1.18272	0.005	1.18272	0.005
-0.9998	1.303984	0.005	1.303984	0.005
-1.0998	1.439123	0.005	1.439123	0.005
-1.1998	1.569069	0.005	1.569069	0.005
-1.2999	1.6986	0.005	1.6986	0.005
-1.3997	1.820895	0.005	1.820895	0.005
-1.4998	1.95076	0.005	1.950755	0.005
-1.5998	2.07154	0.005	2.069685	0.005
-1.6998	2.20214	0.005	2.196753	0.005
-1.7997	2.32185	0.005	2.311189	0.005
-1.8999	2.44361	0.005	2.425188	0.005
-1.8004	2.32314	0.005	2.312432	0.005
-1.7004	2.20499	0.005	2.199566	0.005
-1.6003	2.08007	0.005	2.078194	0.005
-1.5003	1.95	0.005	1.949992	0.005
-1.4002	1.825085	0.005	1.825085	0.005
-1.3003	1.694521	0.005	1.694521	0.005
-1.2002	1.571599	0.005	1.571599	0.005
-1.1002	1.439406	0.005	1.439406	0.005
-1.0001	1.311947	0.005	1.311947	0.005
-0.9002	1.186908	0.005	1.186908	0.005
-0.8001	1.056461	0.005	1.056461	0.005
-0.7002	0.9217582	0.005	0.9217582	0.005
-0.6002	0.7937722	0.005	0.7937722	0.005
-0.5001	0.6605758	0.005	0.6605758	0.005
-0.4001	0.5298007	0.005	0.5298007	0.005
-0.3002	0.39621	0.005	0.39621	0.005
-0.2001	0.265653	0.005	0.265653	0.005
-0.1002	0.1298161	0.005	0.1298161	0.005
-0.0002	0.0002617691	0.005	0.0002617691	0.005
0.0996	-0.1309068	0.005	-0.1309068	0.005
0.1998	-0.2633843	0.005	-0.2633843	0.005
0.2997	-0.3982823	0.005	-0.3982823	0.005
0.3998	-0.5318295	0.005	-0.5318295	0.005
0.4998	-0.6597045	0.005	-0.6597045	0.005
0.5998	-0.7862465	0.005	-0.7862465	0.005
0.6998	-0.9171345	0.005	-0.9171345	0.005
0.7999	-1.055566	0.005	-1.055566	0.005
0.8998	-1.17142	0.005	-1.17142	0.005
0.9998	-1.312121	0.005	-1.312121	0.005
1.0998	-1.443616	0.005	-1.443616	0.005
1.1999	-1.572123	0.005	-1.572123	0.005
1.2998	-1.69958	0.005	-1.69958	0.005
1.3998	-1.823908	0.005	-1.823908	0.005
1.4998	-1.95198	0.005	-1.951977	0.005
1.5999	-2.06986	0.005	-2.068005	0.005
1.6998	-2.20186	0.005	-2.196467	0.005
1.7997	-2.3204	0.005	-2.309749	0.005
1.8997	-2.44702	0.005	-2.428571	0.005