Folder: PhDThesis/data/looselyPackedNP/nanoparticles/vsm/ios-7/backup

Note: README.md
# PhDThesis

Color palette:
- #0EA8DF #MatNat Blau
- #EE292F #Medizin Rot
- #FAAB2D #HumWis Orange
- #76C152 #Wiwi Gruen
- #7F0128 #Rechtswis Bordeaux
- #793394 #Philo Violett

Sample Translation
- Ol-CoFe-C : DD67
- Ac-CoFe-C : AH11
- Ac-CoFe-C-YF : YF45

File: kwi338_BGLinSub_rescale.xye
#Extracted data using VSM extraction tool v1.1
#Loaded parameter file: extractVSM.dat
#Desired unit of B: T
#Desired unit of M: memu
#Reading column for B: Applied Field
#Reading column for M: Raw Signal Mx
#Estimate noise level: 5e-3 memu
#Loading data from file: kwi338-Hys-00.VHD
#Save data to file: kwi338.xye
#Extraction performed at: Fri Jul 13 11:41:19 2018
#Unit of B in data: Oe
#Changing unit by multiplying with factor: 0.0001
#Unit of M in data: memu
#Applied image correction factors to M by linear interpolation of following values
#14999.0	1.0
#15247.0	1.000145
#15498.0	1.000209
#15748.0	1.000417
#15998.0	1.000699
#16248.0	1.001107
#16497.0	1.001462
#16747.0	1.001735
#16997.0	1.002153
#17247.0	1.002709
#17497.0	1.003192
#17747.0	1.003685
#17996.0	1.004307
#18246.0	1.004801
#18495.0	1.005497
#18746.0	1.006341
#18995.0	1.007251

#Substracted file: kwi338.xye
#Using Slope: -1.43
#Rescaled file: kwi338_BGLinSub.xye
#Rescale Factor: 0.0098305
#Sigma Scalefactor: 0.0
#B / T	M_scaled / kAm-1	sM_scaled / kAm-1	M_prescaling / memu	sM_prescaling / memu	M_raw / memu	sM_raw / memu
-0.0009	-0.52676	-0.508621	-0.005178313	0.005	-0.003891313	0.005
0.0019	1.09327	0.508621	0.0107474	0.005	0.008030376	0.005
0.0049	2.52988	0.508621	0.02487002	0.005	0.01786302	0.005
0.0124	6.27029	0.508621	0.06164015	0.005	0.04390815	0.005
0.0199	10.2134	0.508621	0.100403	0.005	0.07194573	0.005
0.0274	14.0425	0.508621	0.138045	0.005	0.09886309	0.005
0.0349	17.8259	0.508621	0.1752378	0.005	0.1253308	0.005
0.0424	21.3927	0.508621	0.2103012	0.005	0.1496692	0.005
0.0499	25.3459	0.508621	0.249163	0.005	0.177806	0.005
0.0574	29.0357	0.508621	0.2854356	0.005	0.2033536	0.005
0.0649	32.6921	0.508621	0.3213801	0.005	0.2285731	0.005
0.0723	35.9444	0.508621	0.3533516	0.005	0.2499626	0.005
0.0798	39.9498	0.508621	0.392726	0.005	0.2786122	0.005
0.0873	42.4692	0.508621	0.4174941	0.005	0.2926551	0.005
0.0948	46.2361	0.508621	0.4545241	0.005	0.3189601	0.005
0.1499	68.1649	0.508621	0.670095	0.005	0.455738	0.005
0.2998	109.777	0.508621	1.07916	0.005	0.6504509	0.005
0.4498	132.389	0.508621	1.30145	0.005	0.6582363	0.005
0.5998	145.011	0.508621	1.42553	0.005	0.5678205	0.005
0.7499	154.568	0.508621	1.51948	0.005	0.4471208	0.005
0.8998	158.889	0.508621	1.56196	0.005	0.2752475	0.005
1.0998	166.138	0.508621	1.63322	0.005	0.06050844	0.005
1.3998	172.634	0.508621	1.69708	0.005	-0.3046341	0.005
1.6997	178.553	0.508621	1.75526	0.005	-0.6738577	0.005
1.8	179.991	0.508621	1.7694	0.005	-0.8011389	0.005
1.5	174.908	0.508621	1.71943	0.005	-0.4255701	0.005
1.2	167.984	0.508621	1.65137	0.005	-0.06463072	0.005
0.95	161.617	0.508621	1.58878	0.005	0.2302794	0.005
0.8	153.622	0.508621	1.51018	0.005	0.3661831	0.005
0.6499	147.175	0.508621	1.4468	0.005	0.5174449	0.005
0.5	135.267	0.508621	1.32974	0.005	0.6147381	0.005
0.35	115.4	0.508621	1.13444	0.005	0.6339399	0.005
0.2001	83.8223	0.508621	0.8240158	0.005	0.5378728	0.005
0.0974	46.6714	0.508621	0.4588034	0.005	0.3195214	0.005
0.0899	43.4941	0.508621	0.427569	0.005	0.299012	0.005
0.0824	40.2483	0.508621	0.395661	0.005	0.277829	0.005
0.0749	36.7606	0.508621	0.3613755	0.005	0.2542685	0.005
0.0673	32.9315	0.508621	0.3237329	0.005	0.2274939	0.005
0.0599	29.7396	0.508621	0.2923549	0.005	0.2066979	0.005
0.0524	26.1502	0.508621	0.2570695	0.005	0.1821375	0.005
0.0449	22.565	0.508621	0.221825	0.005	0.157618	0.005
0.0374	18.8832	0.508621	0.1856313	0.005	0.1321493	0.005
0.0299	13.8406	0.508621	0.13606	0.005	0.09330338	0.005
0.0224	11.4511	0.508621	0.11257	0.005	0.08053844	0.005
0.0149	7.82023	0.508621	0.07687685	0.005	0.05556985	0.005
0.0074	4.071	0.508621	0.04001998	0.005	0.02943798	0.005
0.003	1.69442	0.508621	0.01665699	0.005	0.01236699	0.005
0.0	0.270911	0.508621	0.00266319	0.005	0.00266319	0.005
-0.0029	-1.20656	-0.508621	-0.0118611	0.005	-0.007714077	0.005
-0.0074	-3.46793	-0.508621	-0.0340915	0.005	-0.0235095	0.005
-0.0149	-7.22443	-0.508621	-0.07101981	0.005	-0.04971281	0.005
-0.0224	-10.9934	-0.508621	-0.108071	0.005	-0.07603863	0.005
-0.0299	-14.7551	-0.508621	-0.1450499	0.005	-0.1022929	0.005
-0.0374	-18.0954	-0.508621	-0.1778868	0.005	-0.1244048	0.005
-0.0449	-21.7138	-0.508621	-0.213458	0.005	-0.1492509	0.005
-0.0524	-25.243	-0.508621	-0.2481514	0.005	-0.1732194	0.005
-0.0599	-29.1635	-0.508621	-0.2866919	0.005	-0.2010349	0.005
-0.0674	-29.9701	-0.508621	-0.294621	0.005	-0.198239	0.005
-0.0749	-35.5794	-0.508621	-0.3497636	0.005	-0.2426566	0.005
-0.0824	-39.0204	-0.508621	-0.3835901	0.005	-0.2657581	0.005
-0.0899	-42.1229	-0.508621	-0.41409	0.005	-0.2855328	0.005
-0.0974	-45.6449	-0.508621	-0.448712	0.005	-0.30943	0.005
-0.1998	-81.7432	-0.508621	-0.803577	0.005	-0.5178632	0.005
-0.3498	-115.484	-0.508621	-1.13527	0.005	-0.6350553	0.005
-0.4999	-133.448	-0.508621	-1.31186	0.005	-0.5970033	0.005
-0.6498	-144.87	-0.508621	-1.42415	0.005	-0.4949356	0.005
-0.7998	-153.012	-0.508621	-1.50418	0.005	-0.3604691	0.005
-0.9498	-158.003	-0.508621	-1.55325	0.005	-0.1950351	0.005
-1.1998	-164.938	-0.508621	-1.62142	0.005	0.09429316	0.005
-1.4997	-170.667	-0.508621	-1.67775	0.005	0.4668242	0.005
-1.7997	-175.378	-0.508621	-1.72405	0.005	0.8458752	0.005
-1.7	-173.648	-0.508621	-1.70704	0.005	0.7223968	0.005
-1.3999	-166.611	-0.508621	-1.63787	0.005	0.3639894	0.005
-1.1	-162.405	-0.508621	-1.59652	0.005	-0.02351971	0.005
-0.8999	-154.657	-0.508621	-1.52036	0.005	-0.2335039	0.005
-0.7499	-148.639	-0.508621	-1.46119	0.005	-0.3888354	0.005
-0.6	-140.778	-0.508621	-1.38391	0.005	-0.525914	0.005
-0.4499	-126.739	-0.508621	-1.24591	0.005	-0.6025537	0.005
-0.3	-106.18	-0.508621	-1.0438	0.005	-0.6147984	0.005
-0.1499	-66.241	-0.508621	-0.6511822	0.005	-0.4368252	0.005
-0.0949	-44.2837	-0.508621	-0.435331	0.005	-0.2996241	0.005
-0.0874	-41.1946	-0.508621	-0.4049639	0.005	-0.2799819	0.005
-0.0799	-38.0318	-0.508621	-0.3738722	0.005	-0.2596152	0.005
-0.0724	-34.7404	-0.508621	-0.3415153	0.005	-0.2379833	0.005
-0.0649	-30.4971	-0.508621	-0.2998015	0.005	-0.2069945	0.005
-0.0574	-27.9165	-0.508621	-0.2744335	0.005	-0.1923515	0.005
-0.0499	-22.8242	-0.508621	-0.224373	0.005	-0.153016	0.005
-0.0424	-21.0564	-0.508621	-0.2069953	0.005	-0.1463633	0.005
-0.0349	-17.383	-0.508621	-0.1708833	0.005	-0.1209763	0.005
-0.0274	-13.2642	-0.508621	-0.130394	0.005	-0.09121173	0.005
-0.0199	-10.1263	-0.508621	-0.0995467	0.005	-0.07108972	0.005
-0.0124	-6.67601	-0.508621	-0.0656286	0.005	-0.04789655	0.005
-0.0049	-2.8427	-0.508621	-0.02794518	0.005	-0.02093818	0.005
-0.002	-1.48252	-0.508621	-0.01457394	0.005	-0.01171394	0.005
0.0009	0.257552	0.508621	0.002531862	0.005	0.001244862	0.005
0.0039	1.68106	0.508621	0.01652565	0.005	0.01094865	0.005
0.0099	4.68793	0.508621	0.0460847	0.005	0.0319277	0.005
0.0174	8.27733	0.508621	0.08137031	0.005	0.05648831	0.005
0.0249	12.0266	0.508621	0.118227	0.005	0.08262012	0.005
0.0324	14.3787	0.508621	0.141349	0.005	0.09501747	0.005
0.0399	18.8867	0.508621	0.1856657	0.005	0.1286087	0.005
0.0474	22.8664	0.508621	0.224788	0.005	0.1570058	0.005
0.0549	26.3799	0.508621	0.2593282	0.005	0.1808212	0.005
0.0624	27.0827	0.508621	0.266237	0.005	0.177005	0.005
0.0698	33.0689	0.508621	0.3250835	0.005	0.2252695	0.005
0.0774	36.1943	0.508621	0.355808	0.005	0.245126	0.005
0.0849	39.6518	0.508621	0.389798	0.005	0.2683906	0.005
0.0924	41.0283	0.508621	0.4033285	0.005	0.2711965	0.005
0.0999	45.6369	0.508621	0.448634	0.005	0.3057771	0.005
0.2498	90.1116	0.508621	0.885842	0.005	0.5286281	0.005
0.3999	119.689	0.508621	1.1766	0.005	0.6047472	0.005
0.5499	124.114	0.508621	1.2201	0.005	0.4337436	0.005
0.6998	135.472	0.508621	1.33176	0.005	0.3310415	0.005
0.8498	151.586	0.508621	1.49017	0.005	0.2749517	0.005
0.9999	152.918	0.508621	1.50326	0.005	0.07340608	0.005
1.2997	162.994	0.508621	1.60231	0.005	-0.2562584	0.005
1.5998	161.268	0.508621	1.58535	0.005	-0.7018781	0.005
1.8996	174.393	0.508621	1.71437	0.005	-0.9948409	0.005