Folder: PhDThesis/data/monolayers/nanoparticles/Ac_CoFe_C_AH/vsm (part 2)

File: AH11_LangevinSAXSscaled.xye
#Executed at: 2018-10-26 14:51:30.7514
#Loaded File	 = ./AH11_HYST_100OE_300K.DAT
#particle info	 = Superball Model, r = 46.9421 A, p = 2.65743
#fit report	 = [[Fit Statistics]]
#    # fitting method   = leastsq
#    # function evals   = 73
#    # data points      = 1746
#    # variables        = 3
#    chi-square         = 4.5740e+09
#    reduced chi-square = 2624216.60
#    Akaike info crit   = 25809.4
#    Bayesian info crit = 25825.8
#[[Variables]]
#    Ms:   2005.72 +/- 3.80137 (0.19%) (init = 1)
#    mu:   22105.1 +/- 156.881 (0.71%) (init = 10000)
#    chi: -15.0141 +/- 3.04513 (20.28%) (init = 0)
#    T:    300 (fixed)
#[[Correlations]] (unreported correlations are < 0.100)
#    C(Ms, chi) = -0.900
#    C(Ms, mu)  = -0.636
#    C(mu, chi) =  0.523
#Ms Should	 = 281.859 kA/m
#Rescale Factor	 = 0.140528
#[[Data]]
#B/T	M/kAm-1	sM/kAm-1	M_raw/memu	sM_raw/memu
0.0124541	105.426	0.00320739	750.215	0.0228239
0.0427396	157.83	0.00324098	1123.12	0.0230629
0.0916369	218.324	0.00402128	1553.6	0.0286155
0.14098	236.7	0.00384142	1684.36	0.0273356
0.192608	252.543	0.00580237	1797.1	0.0412898
0.241202	258.628	0.00498877	1840.4	0.0355002
0.293046	263.809	0.00478368	1877.27	0.0340408
0.341391	267.103	0.00488677	1900.71	0.0347743
0.388516	264.422	0.00560707	1881.63	0.0399
0.438935	268.332	0.00449528	1909.46	0.0319885
0.49058	272.806	0.00567255	1941.3	0.040366
0.541209	271.171	0.00425508	1929.66	0.0302793
0.591923	274.39	0.00486889	1952.56	0.0346471
0.644858	276.982	0.00562298	1971.01	0.0400132
0.698581	276.872	0.00533235	1970.23	0.0379451
0.750798	275.083	0.00490279	1957.5	0.0348884
0.803982	276.611	0.00515622	1968.37	0.0366918
0.85497	276.984	0.00492768	1971.02	0.0350655
0.906016	272.449	0.00499142	1938.75	0.0355191
0.95872	279.26	0.0061214	1987.22	0.04356
1.01018	275.069	0.00519432	1957.4	0.0369629
1.06016	282.705	0.0057043	2011.73	0.0405919
1.1139	272.9	0.00565045	1941.96	0.0402087
1.16308	281.038	0.00494849	1999.87	0.0352136
1.21232	274.215	0.00510537	1951.32	0.0363299
1.26579	280.479	0.00510794	1995.89	0.0363482
1.31401	274.236	0.00521135	1951.47	0.0370841
1.363	276.866	0.00535058	1970.19	0.0380748
1.4165	278.445	0.0061942	1981.42	0.0440781
1.46771	274.046	0.00545579	1950.12	0.0388235
1.51966	279.174	0.00562198	1986.61	0.0400061
1.57163	270.042	0.00300271	1921.62	0.0213674
1.62287	275.059	0.00599703	1957.33	0.042675
1.67034	281.082	0.00592218	2000.19	0.0421424
1.72432	273.026	0.00611515	1942.86	0.0435156
1.77626	275.829	0.00701227	1962.81	0.0498994
1.82602	277.247	0.00598088	1972.89	0.0425601
1.87673	275.544	0.00687741	1960.77	0.0489398
1.92845	274.804	0.00600562	1955.51	0.0427361
1.979175	275.596	0.00669869	1961.15	0.047668
1.96419	272.73	0.00526219	1940.75	0.0374458
1.91145	275.46	0.00425779	1960.18	0.0302985
1.85902	271.073	0.00636134	1928.96	0.0452675
1.80677	275.717	0.006169	1962.01	0.0438987
1.75382	274.532	0.00517217	1953.58	0.0368052
1.70085	276.592	0.0057289	1968.23	0.040767
1.65012	275.389	0.00592132	1959.67	0.0421362
1.5999	276.927	0.0054061	1970.62	0.0384699
1.54394	277.465	0.0053565	1974.45	0.038117
1.49297	278.503	0.00528516	1981.83	0.0376093
1.43903	278.141	0.00530931	1979.26	0.0377812
1.38629	274.697	0.00654389	1954.75	0.0465665
1.33155	275.828	0.00510489	1962.8	0.0363265
1.27957	275.034	0.00542455	1957.15	0.0386012
1.23009	276.513	0.00696255	1967.67	0.0495457
1.17887	273.94	0.00544781	1949.36	0.0387667
1.12517	277.727	0.00529132	1976.31	0.0376532
1.07266	276.017	0.00506808	1964.14	0.0360646
1.02048	277.742	0.00579838	1976.42	0.0412614
0.971005	275.88	0.0049998	1963.17	0.0355787
0.91877	272.319	0.00487815	1937.83	0.034713
0.86877	273.943	0.00513968	1949.39	0.0365741
0.815256	274.848	0.00642797	1955.83	0.0457416
0.760559	276.348	0.00507005	1966.5	0.0360786
0.706591	275.469	0.00534765	1960.24	0.038054
0.652865	271.758	0.00460172	1933.84	0.0327459
0.604881	273.773	0.00486792	1948.18	0.0346403
0.555179	273.978	0.00621498	1949.63	0.0442259
0.503975	267.356	0.00439645	1902.51	0.0312852
0.454242	268.51	0.0052331	1910.72	0.0372388
0.400697	269.148	0.00501906	1915.26	0.0357158
0.352211	264.335	0.00631636	1881.02	0.0449474
0.30153	259.821	0.00518908	1848.89	0.0369256
0.248268	255.757	0.00500469	1819.97	0.0356135
0.195798	248.837	0.00412715	1770.73	0.0293689
0.146044	244.39	0.0051824	1739.09	0.0368781
0.0958107	218.474	0.00441335	1554.67	0.0314055
0.0463278	168.259	0.00287861	1197.33	0.0204843
-0.00412121	-18.5776	0.00129729	-132.199	0.00923154
-0.0553305	-189.075	0.00371741	-1345.46	0.0264532
-0.106934	-225.033	0.00443047	-1601.34	0.0315274
-0.158008	-242.226	0.0041006	-1723.69	0.0291799
-0.208608	-252.445	0.00365969	-1796.4	0.0260425
-0.257485	-261.924	0.00465946	-1863.86	0.0331568
-0.308467	-262.143	0.0040161	-1865.42	0.0285786
-0.360976	-265.948	0.00431018	-1892.49	0.0306713
-0.411794	-262.902	0.00586938	-1870.81	0.0417666
-0.463318	-271.398	0.00517047	-1931.27	0.0367932
-0.518045	-269.796	0.00501516	-1919.87	0.035688
-0.567272	-270.007	0.00594204	-1921.38	0.0422837
-0.616017	-271.105	0.00539637	-1929.19	0.0384007
-0.6685	-275.591	0.00576035	-1961.12	0.0409908
-0.72045	-272.697	0.0059382	-1940.52	0.0422564
-0.771951	-273.358	0.00602832	-1945.22	0.0428977
-0.825914	-274.138	0.00448403	-1950.77	0.0319084
-0.878613	-272.655	0.00464907	-1940.22	0.0330829
-0.931185	-275.041	0.00583887	-1957.2	0.0415496
-0.984653	-275.082	0.00490154	-1957.49	0.0348795
-1.04011	-273.2	0.00586482	-1944.1	0.0417342
-1.0881	-276.643	0.00553548	-1968.6	0.0393906
-1.14006	-277.083	0.00624204	-1971.73	0.0444185
-1.19503	-276.404	0.00710754	-1966.9	0.0505774
-1.24548	-277.187	0.00639751	-1972.47	0.0455248
-1.29822	-279.543	0.00529816	-1989.23	0.0377018
-1.35297	-273.08	0.00598662	-1943.24	0.0426009
-1.40345	-273.132	0.00412537	-1943.61	0.0293562
-1.45491	-275.264	0.00531592	-1958.78	0.0378282
-1.50788	-275.561	0.00624639	-1960.9	0.0444494
-1.56161	-278.9	0.00740141	-1984.66	0.0526686
-1.61358	-275.682	0.00540898	-1961.76	0.0384904
-1.66753	-274.316	0.00527898	-1952.04	0.0375653
-1.71824	-276.034	0.00457126	-1964.26	0.0325292
-1.77074	-273.122	0.00540256	-1943.54	0.0384447
-1.82372	-270.794	0.00490657	-1926.98	0.0349153
-1.87716	-277.486	0.00505874	-1974.6	0.0359981
-1.92987	-271.817	0.00574958	-1934.25	0.0409142
-1.9841	-272.002	0.00395771	-1935.57	0.0281632
-1.96243	-268.293	0.00526002	-1909.18	0.0374304
-1.90967	-270.41	0.00616223	-1924.24	0.0438505
-1.85822	-269.373	0.00551987	-1916.87	0.0392795
-1.807	-269.631	0.00571769	-1918.7	0.0406872
-1.7553	-270.709	0.00539724	-1926.37	0.0384069
-1.69956	-269.227	0.00540679	-1915.82	0.0384748
-1.65286	-273.016	0.00579087	-1942.79	0.0412079
-1.59662	-271.943	0.00428072	-1935.16	0.0304617
-1.54691	-275.177	0.00593985	-1958.16	0.0422681
-1.49366	-271.413	0.00610331	-1931.38	0.0434313
-1.43768	-272.555	0.00560155	-1939.51	0.0398607
-1.38524	-274.52	0.00680409	-1953.49	0.048418
-1.33576	-271.925	0.00687084	-1935.03	0.0488931
-1.28477	-272.754	0.00473391	-1940.92	0.0336866
-1.2333	-272.018	0.00520739	-1935.68	0.0370559
-1.18111	-270.002	0.00585911	-1921.34	0.0416936
-1.12735	-272.732	0.00539136	-1940.77	0.0383651
-1.07443	-276.364	0.00573643	-1966.61	0.0408205
-1.02218	-274.261	0.00551596	-1951.64	0.0392517
-0.969224	-273.565	0.00500398	-1946.7	0.0356084
-0.917491	-271.217	0.00540681	-1929.99	0.0384749
-0.867185	-273.787	0.00586737	-1948.27	0.0417524
-0.816484	-272.367	0.00427217	-1938.17	0.0304009
-0.763507	-269.485	0.0040642	-1917.66	0.0289209
-0.712269	-273.558	0.00420022	-1946.64	0.0298888
-0.661571	-271.799	0.0047327	-1934.12	0.033678
-0.607784	-267.219	0.00598077	-1901.54	0.0425593
-0.556331	-266.936	0.00570012	-1899.52	0.0405622
-0.507119	-271.447	0.00516803	-1931.63	0.0367758
-0.453131	-265.074	0.00389917	-1886.28	0.0277466
-0.4034	-263.796	0.00558669	-1877.18	0.039755
-0.349902	-263.532	0.00574033	-1875.3	0.0408483
-0.299912	-261.551	0.00471689	-1861.21	0.0335655
-0.250955	-257.417	0.00496646	-1831.79	0.0353414
-0.201423	-249.234	0.00469072	-1773.56	0.0333793
-0.148195	-238.734	0.00464033	-1698.84	0.0330207
-0.0966819	-220.455	0.00363802	-1568.76	0.0258882
-0.0471802	-169.576	0.00285838	-1206.71	0.0203403
0.00128952	11.9498	0.00127019	85.0349	0.00903869
0.050967	177.908	0.00325135	1266	0.0231367
0.0986214	218.533	0.00381209	1555.09	0.0271269
0.153163	239.783	0.00433948	1706.3	0.0308798
0.200833	249.995	0.00389679	1778.97	0.0277297
0.25064	259.148	0.00514679	1844.1	0.0366247
0.302567	262	0.00459213	1864.4	0.0326777
0.358324	262.626	0.00614315	1868.85	0.0437148
0.404637	262.906	0.00588749	1870.85	0.0418955
0.459928	267.699	0.00568612	1904.95	0.0404626
0.509155	265.895	0.00500359	1892.11	0.0356057
0.559404	270.448	0.0054042	1924.51	0.0384564
0.614381	270.295	0.00448793	1923.42	0.0319362
0.660342	268.8	0.00475521	1912.78	0.0338382
0.712807	273.805	0.00574863	1948.4	0.0409074
0.764572	271.195	0.00530602	1929.83	0.0377578
0.815755	272.694	0.00593844	1940.5	0.042258
0.869239	272.517	0.00518347	1939.24	0.0368857
0.919787	273.267	0.00620651	1944.57	0.0441656
0.968771	275.819	0.00529122	1962.73	0.0376524
1.01999	272.144	0.00557929	1936.58	0.0397023
1.07271	271.887	0.00564435	1934.76	0.0401653
1.12489	271.668	0.00491401	1933.2	0.0349682
1.1759	275.321	0.00631556	1959.19	0.0449417
1.23158	271.116	0.00596577	1929.27	0.0424525
1.28433	272.65	0.00539717	1940.18	0.0384064
1.33656	273.919	0.00535683	1949.21	0.0381193
1.38708	269.998	0.00515491	1921.31	0.0366824
1.4383	273.204	0.00566496	1944.13	0.040312
1.48597	275.948	0.00622044	1963.65	0.0442648
1.54147	273.463	0.00495194	1945.97	0.0352381
1.59194	271.122	0.00571053	1929.31	0.0406363
1.6419	276.19	0.0062287	1965.37	0.0443236
1.69685	269.659	0.00511247	1918.9	0.0363804
1.74809	271.131	0.00627213	1929.38	0.0446326
1.79807	272.886	0.00608836	1941.86	0.0433249
1.84782	273.518	0.00629591	1946.36	0.0448019
1.89903	271.449	0.00583982	1931.64	0.0415563
1.9505	270.302	0.00607028	1923.47	0.0431962
1.99646	274.072	0.00591828	1950.3	0.0421146