Folder: PhDThesis/data/monolayers/nanoparticles/Ol_CoFe_C/vsm/rescale

Note: README.md
# PhDThesis

Color palette:
- #0EA8DF #MatNat Blau
- #EE292F #Medizin Rot
- #FAAB2D #HumWis Orange
- #76C152 #Wiwi Gruen
- #7F0128 #Rechtswis Bordeaux
- #793394 #Philo Violett

Sample Translation
- Ol-CoFe-C : DD67
- Ac-CoFe-C : AH11
- Ac-CoFe-C-YF : YF45

File: DD67_10K_FC1T_LangevinSAXSscaled.xye
#Executed at: 2018-11-22 19:05:25.1033
#Loaded File	 = ../rawdata/DD172_6_HYST_10K_FC_1T.DAT
#Rescale Factor	 = 0.0244316
#[[Data]]
#B/T	M/kAm-1	sM/kAm-1	M_raw/memu	sM_raw/memu
-3.34923e-05	44.4516	0.014547	1819.43	0.595415
0.203043	46.9439	0.00996587	1921.44	0.407908
0.434616	50.3023	0.00977155	2058.9	0.399955
0.672583	53.5766	0.0111612	2192.92	0.456832
0.90826	56.7745	0.0115479	2323.81	0.472662
1.13136	59.7318	0.011851	2444.85	0.485067
1.3623	62.7441	0.0131218	2568.15	0.537081
1.58938	65.7599	0.0142347	2691.59	0.582636
1.80983	68.7143	0.0131152	2812.51	0.536814
2.03238	71.6821	0.0141891	2933.99	0.580765
2.26082	74.8085	0.0160738	3061.95	0.657908
2.47214	77.7661	0.0116356	3183.01	0.476252
2.66504	80.4164	0.0186748	3291.49	0.764371
2.86729	83.2906	0.0148093	3409.13	0.606151
3.07463	86.1656	0.0161236	3526.8	0.659948
3.27334	88.9678	0.0225708	3641.5	0.923834
3.47617	91.8017	0.0213106	3757.49	0.872255
3.67362	94.5717	0.0186897	3870.87	0.764978
3.87598	97.4148	0.0178248	3987.24	0.729579
4.06841	100.049	0.0206604	4095.04	0.845641
4.25557	102.691	0.0222624	4203.22	0.911211
4.45118	105.242	0.0215495	4307.6	0.882033
4.64512	107.809	0.020667	4412.67	0.845912
4.84226	110.308	0.0202856	4514.96	0.830302
5.04069	112.836	0.0258447	4618.43	1.05784
5.25153	115.426	0.0242668	4724.43	0.993251
5.47197	118.047	0.0296553	4831.71	1.21381
5.69582	120.64	0.0234091	4937.85	0.958146
5.9085	123.093	0.0211415	5038.25	0.865331
6.12589	125.421	0.0196273	5133.54	0.803356
6.35456	127.784	0.0263038	5230.28	1.07663
6.57794	130.06	0.0306661	5323.43	1.25518
6.79061	132.086	0.0253743	5406.34	1.03858
7.01325	134.272	0.0289524	5495.81	1.18504
7.23364	136.245	0.0296858	5576.59	1.21506
7.45528	138.16	0.0339311	5654.96	1.38882
7.68074	140.048	0.0303751	5732.23	1.24327
7.90936	141.911	0.0264433	5808.5	1.08234
8.13605	143.694	0.0366771	5881.47	1.50121
8.36021	145.415	0.0249129	5951.9	1.0197
8.55966	146.824	0.0281728	6009.57	1.15313
8.76754	148.413	0.0303416	6074.63	1.2419
8.97395	149.76	0.0267844	6129.77	1.0963
8.83677	149.227	0.0244388	6107.94	1.00029
8.62339	148.016	0.0240601	6058.36	0.984794
8.40442	146.852	0.0229174	6010.74	0.938021
8.18503	145.428	0.02377	5952.45	0.972917
7.95851	144.024	0.0257056	5894.96	1.05214
7.73285	142.546	0.0295724	5834.48	1.21041
7.50966	141.086	0.0279429	5774.72	1.14372
7.28799	139.597	0.02386	5713.79	0.976603
7.06907	138.077	0.0262015	5651.57	1.07244
6.84838	136.461	0.0211566	5585.42	0.865949
6.627	134.845	0.0249835	5519.27	1.02259
6.39686	133.079	0.0246785	5446.98	1.0101
6.17667	131.32	0.0250599	5374.98	1.02571
5.94652	129.475	0.0203109	5299.47	0.831337
5.71833	127.498	0.0193275	5218.57	0.791083
5.49596	125.484	0.0226817	5136.13	0.928372
5.27007	123.446	0.0202636	5052.71	0.829401
5.04249	121.295	0.0256965	4964.66	1.05177
4.82205	119.147	0.0157293	4876.74	0.643807
4.60593	116.959	0.0247875	4787.2	1.01457
4.38994	114.717	0.0248346	4695.41	1.0165
4.16887	112.315	0.019005	4597.11	0.777885
3.95468	109.914	0.0254763	4498.85	1.04276
3.72959	107.302	0.0200021	4391.95	0.818697
3.50622	104.563	0.0199914	4279.81	0.81826
3.29409	101.97	0.0176955	4173.68	0.724288
3.0722	99.0688	0.0179877	4054.94	0.736244
2.84432	96.066	0.0178229	3932.03	0.7295
2.6169	92.8974	0.0188363	3802.34	0.770981
2.39504	89.7663	0.0154019	3674.18	0.630408
2.17462	86.5311	0.0149414	3541.76	0.611561
1.94501	83.0779	0.0151916	3400.42	0.621802
1.72964	79.7522	0.0147412	3264.3	0.603367
1.5188	76.3548	0.0111099	3125.24	0.454732
1.29838	72.79	0.0132477	2979.33	0.542235
1.08302	69.2474	0.0121018	2834.33	0.495333
0.870089	65.6585	0.0114589	2687.43	0.469017
0.664697	62.1567	0.010601	2544.11	0.433906
0.453567	58.4919	0.00913375	2394.11	0.373849
0.237852	54.6133	0.011138	2235.35	0.455884
0.0236637	50.592	0.0107602	2070.76	0.440419
-0.188896	46.4436	0.00884179	1900.96	0.361899
-0.399971	42.0368	0.0101567	1720.59	0.415717
-0.613697	37.4232	0.0101682	1531.75	0.416189
-0.836101	32.4098	0.0103185	1326.55	0.422341
-1.06353	26.7799	0.0108176	1096.11	0.44277
-1.28541	20.9824	0.0117156	858.822	0.479526
-1.50408	14.6986	0.010205	601.621	0.417698
-1.73269	7.54422	0.0124986	308.789	0.511574
-1.95681	-0.0595727	0.0118277	-2.43834	0.484116
-2.17419	-7.90104	0.0137924	-323.394	0.56453
-2.39883	-16.6159	0.0171368	-680.097	0.701419
-2.61692	-25.5377	0.0140357	-1045.27	0.574488
-2.84911	-35.0488	0.016579	-1434.57	0.678586
-3.06819	-44.1891	0.0158348	-1808.68	0.648125
-3.29534	-53.4862	0.0135881	-2189.22	0.556169
-3.52043	-62.226	0.0184835	-2546.94	0.75654
-3.74031	-70.3001	0.0226183	-2877.42	0.925779
-3.95069	-77.5292	0.0178974	-3173.31	0.732549
-4.16506	-84.3468	0.0219704	-3452.36	0.899262
-4.3857	-90.7671	0.021053	-3715.14	0.86171
-4.59587	-96.384	0.0223226	-3945.05	0.913676
-4.8107	-101.64	0.0211157	-4160.17	0.864277
-5.02835	-106.549	0.0316128	-4361.1	1.29393
-5.25269	-111.159	0.0237869	-4549.81	0.973608
-5.47687	-115.355	0.0257683	-4721.55	1.05471
-5.70943	-119.29	0.0203172	-4882.62	0.831592
-5.94008	-122.858	0.0203403	-5028.65	0.832538
-6.1687	-126.132	0.0200893	-5162.63	0.822264
-6.39909	-129.221	0.0243383	-5289.1	0.996179
-6.63144	-132.105	0.0212204	-5407.13	0.868563
-6.86207	-134.709	0.0253145	-5513.7	1.03614
-7.08317	-137.111	0.0255201	-5612.04	1.04455
-7.318	-139.454	0.0298756	-5707.94	1.22282
-7.54487	-141.599	0.0270159	-5795.71	1.10578
-7.76173	-143.481	0.0323562	-5872.74	1.32436
-7.99209	-145.469	0.0269988	-5954.12	1.10508
-8.21724	-147.286	0.0274759	-6028.48	1.1246
-8.4446	-148.998	0.0260504	-6098.55	1.06626
-8.65173	-150.486	0.0279798	-6159.49	1.14523
-8.87005	-152.015	0.0278887	-6222.04	1.1415
-8.93341	-152.698	0.0299429	-6250.01	1.22558
-8.72039	-151.634	0.0240365	-6206.46	0.983828
-8.49982	-150.397	0.021738	-6155.84	0.889749
-8.27918	-149.151	0.0264151	-6104.82	1.08118
-8.04334	-147.749	0.0272863	-6047.46	1.11684
-7.82862	-146.513	0.025199	-5996.84	1.03141
-7.60705	-145.129	0.0306203	-5940.22	1.25331
-7.3872	-143.723	0.0294085	-5882.66	1.20371
-7.16405	-142.248	0.0224187	-5822.29	0.917607
-6.94268	-140.756	0.0254936	-5761.22	1.04346
-6.70936	-139.154	0.0280168	-5695.64	1.14674
-6.48075	-137.496	0.0294284	-5627.79	1.20452
-6.25612	-135.78	0.027658	-5557.55	1.13206
-6.0317	-133.989	0.0300576	-5484.22	1.23027
-5.80687	-132.191	0.0186866	-5410.66	0.764853
-5.57646	-130.256	0.0312514	-5331.46	1.27914
-5.34562	-128.256	0.0263827	-5249.58	1.07986
-5.12028	-126.208	0.0249484	-5165.75	1.02115
-4.88787	-123.983	0.0286435	-5074.67	1.17239
-4.65628	-121.669	0.0246932	-4979.99	1.01071
-4.4251	-119.29	0.0256547	-4882.6	1.05006
-4.18377	-116.6	0.0153879	-4772.5	0.629834
-3.96514	-114.024	0.0213974	-4667.07	0.875808
-3.73302	-111.298	0.0223777	-4555.5	0.915931
-3.51039	-108.438	0.0186418	-4438.42	0.76302
-3.28759	-105.517	0.0171837	-4318.86	0.703338
-3.05566	-102.2	0.0130648	-4183.1	0.534748
-2.82534	-98.7473	0.0193081	-4041.78	0.790291
-2.59543	-95.124	0.0149365	-3893.48	0.611359
-2.37283	-91.434	0.0154352	-3742.44	0.631769
-2.14919	-87.4629	0.0123019	-3579.9	0.503524
-1.92684	-83.231	0.0134691	-3406.69	0.551298
-1.70793	-78.951	0.0123309	-3231.51	0.504711
-1.50235	-74.5413	0.0136798	-3051.01	0.559919
-1.28364	-69.7454	0.0123883	-2854.71	0.507061
-1.06804	-64.556	0.0114779	-2642.31	0.469798
-0.849318	-59.1855	0.0109509	-2422.49	0.448225
-0.633698	-53.5089	0.0108015	-2190.15	0.44211
-0.411509	-47.233	0.0100088	-1933.27	0.409665
-0.189105	-40.5869	0.01039	-1661.24	0.425267
0.0226037	-34.0137	0.011578	-1392.2	0.473895
0.24775	-26.6604	0.0108349	-1091.22	0.443478
0.465299	-19.1897	0.0141594	-785.444	0.579553
0.686693	-11.4533	0.0126768	-468.79	0.518868
0.905176	-3.46128	0.0115663	-141.672	0.473415
1.12204	4.5134	0.0139081	184.736	0.569267
1.34373	13.0139	0.0144875	532.667	0.592982
1.56681	21.3612	0.0153656	874.324	0.628921
1.78747	29.8322	0.0148089	1221.05	0.606135
2.02407	38.5092	0.0125771	1576.2	0.514786
2.24273	46.3845	0.0139004	1898.54	0.56895
2.47385	54.2264	0.0175078	2219.51	0.716605
2.69354	61.3574	0.019615	2511.39	0.80285
2.9159	68.0487	0.0180527	2785.27	0.738906
3.13381	74.2836	0.0173114	3040.46	0.708563
3.3497	79.9578	0.0169475	3272.72	0.69367
3.57358	85.4671	0.0171708	3498.21	0.702811
3.79121	90.4529	0.0175226	3702.28	0.717211
4.0016	94.8988	0.0204783	3884.26	0.838186
4.20025	98.6816	0.0218622	4039.09	0.89483
4.40313	102.463	0.021966	4193.85	0.89908
4.6111	106.075	0.0212199	4341.69	0.86854
4.81599	109.363	0.0231002	4476.28	0.945504
5.01764	112.412	0.0260053	4601.09	1.06441
5.22978	115.5	0.0222053	4727.48	0.908875
5.43791	118.258	0.0220186	4840.35	0.901231
5.63979	120.89	0.0237179	4948.1	0.970786
5.847	123.372	0.0201286	5049.66	0.823875
6.0586	125.865	0.0247084	5151.7	1.01133
6.26931	128.173	0.0256034	5246.21	1.04796
6.48269	130.375	0.0227445	5336.33	0.930943
6.67936	132.375	0.0265515	5418.18	1.08677
6.87979	134.272	0.0210807	5495.8	0.862843
7.0789	136.112	0.0285274	5571.12	1.16764
7.28107	137.916	0.0267655	5644.98	1.09553
7.48221	139.671	0.0240777	5716.82	0.985513
7.69217	141.347	0.0239943	5785.4	0.982099
7.89235	142.891	0.0293942	5848.62	1.20312
8.10331	144.51	0.0316372	5914.87	1.29493
8.30296	145.998	0.0260407	5975.78	1.06586
8.49487	147.332	0.018524	6030.37	0.758195
8.68357	148.617	0.0289396	6082.98	1.18451
8.86468	149.87	0.0299731	6134.28	1.22681
8.95354	150.624	0.0348219	6165.13	1.42528
8.76357	149.637	0.0318391	6124.72	1.30319
8.5729	148.617	0.0273351	6082.96	1.11884
8.3764	147.492	0.0194782	6036.93	0.797252
8.16875	146.278	0.0287523	5987.22	1.17685
7.95404	144.984	0.0266848	5934.25	1.09222
7.73712	143.624	0.0253555	5878.59	1.03781
7.51888	142.284	0.0293454	5823.74	1.20112
7.30875	140.944	0.031794	5768.9	1.30134
7.10259	139.548	0.0294923	5711.78	1.20713
6.89266	138.142	0.0272607	5654.2	1.1158
6.6825	136.644	0.0261767	5592.89	1.07143
6.4671	135.072	0.0321613	5528.58	1.31638
6.25571	133.504	0.0219754	5464.39	0.899465
6.03923	131.817	0.0255286	5395.33	1.0449
5.81809	130.043	0.0214241	5322.73	0.8769
5.63541	128.541	0.0196557	5261.23	0.804518

File: DD67_LangevinSAXSscaled.xye
#Executed at: 2018-11-13 00:53:52.3006
#Loaded File	 = ../rawdata/DD172_6_HYST_300K.DAT
#particle info	 = Superball Model, r = 56.2266 A, p = 1.53774
#fit report	 = [[Fit Statistics]]
#    # fitting method   = leastsq
#    # function evals   = 96
#    # data points      = 2218
#    # variables        = 3
#    chi-square         = 4102388.52
#    reduced chi-square = 1852.09
#    Akaike info crit   = 16691.4
#    Bayesian info crit = 16708.5
#[[Variables]]
#    Ms:     1402.73 +/- 4.95269 (0.35%) (init = 1)
#    mu:     3792.92 +/- 24.1088 (0.64%) (init = 10000)
#    chi:    843.033 +/- 3.04624 (0.36%) (init = -0.035)
#    sigMu:  0.2780069 (fixed)
#    T:      300 (fixed)
#[[Correlations]] (unreported correlations are < 0.100)
#    C(Ms, chi) = -0.959
#    C(Ms, mu)  = -0.907
#    C(mu, chi) =  0.806
#Ms Should	 = 34.2709 kA/m
#Rescale Factor	 = 0.0244316
#[[Data]]
#B/T	M/kAm-1	sM/kAm-1	M_raw/memu	sM_raw/memu
1.2179e-05	-0.317632	0.0107017	-13.0009	0.438027
0.0463777	7.03384	0.0190199	287.899	0.778495
0.0989163	13.4672	0.0168016	551.22	0.687699
0.148178	17.9336	0.0144714	734.03	0.592322
0.201477	21.6704	0.0140797	886.98	0.57629
0.254133	24.9735	0.0139865	1022.18	0.572473
0.305059	27.6213	0.0130775	1130.55	0.535267
0.35932	30.2568	0.0135189	1238.43	0.553334
0.412231	32.5884	0.0140316	1333.86	0.574319
0.465698	34.774	0.0154771	1423.32	0.633485
0.519387	36.8942	0.013391	1510.1	0.548101
0.571689	38.8117	0.0147597	1588.58	0.604123
0.622926	40.5634	0.0170284	1660.28	0.696981
0.674117	42.3357	0.0161038	1732.82	0.659136
0.728333	44.0706	0.0134991	1803.83	0.552526
0.77943	45.6044	0.0157619	1866.61	0.645142
0.832769	47.133	0.0175721	1929.18	0.719236
0.883469	48.6306	0.0208395	1990.47	0.852973
0.934571	49.9682	0.0179837	2045.22	0.736081
0.98552	51.2935	0.0189007	2099.47	0.773615
1.04223	52.7532	0.021012	2159.21	0.860032
1.0952	54.0373	0.0210462	2211.77	0.861431
1.14855	55.3353	0.0171815	2264.9	0.703248
1.2039	56.5846	0.0202377	2316.04	0.828341
1.25823	57.8261	0.0282761	2366.85	1.15735
1.31337	59.0085	0.0251672	2415.25	1.03011
1.36856	60.1591	0.0247249	2462.34	1.012
1.42528	61.3199	0.0278762	2509.86	1.14099
1.4779	62.3527	0.0208933	2552.13	0.855173
1.52736	63.269	0.0255735	2589.63	1.04673
1.58069	64.3098	0.0224185	2632.23	0.917601
1.62919	65.2349	0.0282341	2670.1	1.15564
1.6857	66.2151	0.0196322	2710.22	0.803557
1.74026	67.197	0.0251406	2750.41	1.02902
1.79109	68.0097	0.0377727	2783.67	1.54606
1.84258	68.8972	0.0236554	2820	0.968227
1.89289	69.7181	0.0348301	2853.6	1.42561
1.94559	70.5701	0.0244361	2888.47	1.00018
1.995	71.4106	0.0306149	2922.87	1.25309
1.93938	70.5606	0.0315194	2888.08	1.2901
1.88446	69.688	0.0242267	2852.37	0.99161
1.82987	68.7796	0.033857	2815.19	1.38578
1.77675	67.8812	0.0289284	2778.41	1.18406
1.72605	66.948	0.0329891	2740.22	1.35026
1.66932	65.9843	0.0267536	2700.77	1.09504
1.61499	65.0025	0.0257078	2660.59	1.05223
1.56365	64.0389	0.0246769	2621.15	1.01004
1.50953	63.0085	0.0208325	2578.97	0.852683
1.45534	61.9891	0.0310677	2537.24	1.27162
1.40098	60.8917	0.0210953	2492.33	0.86344
1.34665	59.7738	0.0225218	2446.57	0.921827
1.29425	58.6907	0.0232867	2402.24	0.953137
1.24443	57.6196	0.0255753	2358.4	1.04681
1.18958	56.3256	0.020813	2305.44	0.851887
1.13778	55.1863	0.0195606	2258.81	0.800627
1.0803	53.8124	0.0198384	2202.57	0.811995
1.02594	52.4599	0.0175311	2147.21	0.717557
0.973339	51.1172	0.0176718	2092.25	0.723317
0.918757	49.6724	0.0151423	2033.12	0.619783
0.866612	48.2227	0.0155627	1973.78	0.63699
0.81751	46.8744	0.0169189	1918.59	0.692498
0.764909	45.251	0.0190905	1852.14	0.781386
0.712458	43.6954	0.018414	1788.48	0.753695
0.660872	42.0051	0.0166592	1719.29	0.681869
0.603029	40.053	0.0136822	1639.39	0.560021
0.551289	38.1902	0.0156486	1563.14	0.640503
0.495594	36.1116	0.0140549	1478.07	0.575272
0.443581	34.0246	0.0146193	1392.65	0.598377
0.390226	31.7933	0.0124852	1301.31	0.511024
0.335111	29.2924	0.0128897	1198.95	0.527584
0.284772	26.6682	0.0120784	1091.54	0.494373
0.234156	23.9253	0.0118743	979.273	0.48602
0.177085	20.2724	0.0135376	829.758	0.554101
0.125452	16.1948	0.0148827	662.863	0.609157
0.0737414	11.1529	0.0157731	456.495	0.6456
0.0250159	4.1729	0.0208735	170.799	0.854364
-0.0258252	-4.39604	0.023513	-179.932	0.962397
-0.0752733	-11.304	0.016251	-462.679	0.665161
-0.127167	-16.5092	0.0114643	-675.731	0.469238
-0.179231	-20.5098	0.0128714	-839.476	0.526834
-0.227367	-23.5078	0.0156155	-962.186	0.639151
-0.282065	-26.5651	0.0140607	-1087.32	0.575513
-0.334904	-29.17	0.0140352	-1193.94	0.574468
-0.38558	-31.5683	0.014878	-1292.11	0.608965
-0.435279	-33.6897	0.0115641	-1378.94	0.473323
-0.49557	-36.0015	0.0141868	-1473.56	0.580674
-0.546164	-37.8704	0.0162613	-1550.06	0.665585
-0.599499	-39.8552	0.0128515	-1631.29	0.52602
-0.653459	-41.7254	0.0153932	-1707.84	0.630052
-0.706483	-43.4133	0.0178682	-1776.93	0.731355
-0.759545	-45.0615	0.0155504	-1844.39	0.636486
-0.811665	-46.6094	0.0166542	-1907.75	0.681666
-0.864989	-48.0988	0.0151316	-1968.71	0.619345
-0.91892	-49.6138	0.0150792	-2030.72	0.617201
-0.969774	-50.9527	0.0187447	-2085.52	0.76723
-1.0236	-52.3442	0.0199829	-2142.48	0.817911
-1.07698	-53.6466	0.018114	-2195.78	0.741415
-1.13191	-54.9506	0.0150593	-2249.16	0.616386
-1.18786	-56.2224	0.016641	-2301.21	0.681124
-1.24194	-57.4619	0.0176076	-2351.95	0.720688
-1.29667	-58.6621	0.0244835	-2401.07	1.00212
-1.34807	-59.7594	0.0240333	-2445.98	0.983696
-1.39779	-60.7869	0.0169374	-2488.04	0.693258
-1.45241	-61.8842	0.0150297	-2532.95	0.615174
-1.5031	-62.8748	0.0207234	-2573.5	0.848219
-1.55846	-63.9039	0.0182513	-2615.62	0.747036
-1.61368	-64.9155	0.0171718	-2657.03	0.702851
-1.66852	-65.9006	0.0259078	-2697.34	1.06042
-1.72123	-66.8282	0.0245735	-2735.31	1.00581
-1.77623	-67.7635	0.0263027	-2773.59	1.07658
-1.8325	-68.7433	0.0220033	-2813.7	0.900607
-1.88927	-69.6871	0.0289807	-2852.33	1.1862
-1.94649	-70.5841	0.0277581	-2889.04	1.13615
-1.99892	-71.4578	0.0278294	-2924.8	1.13907
-1.94131	-70.5431	0.0274599	-2887.37	1.12395
-1.88386	-69.6364	0.0326055	-2850.26	1.33456
-1.82938	-68.7114	0.0272302	-2812.39	1.11455
-1.77478	-67.7911	0.0310503	-2774.73	1.27091
-1.71968	-66.838	0.0262833	-2735.72	1.07579
-1.66321	-65.8753	0.0263697	-2696.31	1.07933
-1.60685	-64.8395	0.0241632	-2653.91	0.989013
-1.54942	-63.7609	0.029284	-2609.77	1.19861
-1.49631	-62.7662	0.0233842	-2569.05	0.957128
-1.43637	-61.594	0.0260351	-2521.07	1.06563
-1.38052	-60.4292	0.0196243	-2473.4	0.803231
-1.32314	-59.2207	0.0212606	-2423.94	0.870206
-1.26653	-58.0518	0.0230499	-2376.09	0.943446
-1.21035	-56.796	0.0198526	-2324.69	0.812575
-1.15536	-55.5153	0.0209895	-2272.27	0.85911
-1.09589	-54.1803	0.0201612	-2217.63	0.825207
-1.0429	-52.8429	0.0235511	-2162.89	0.963958
-0.98796	-51.4396	0.0217996	-2105.45	0.89227
-0.93224	-50.0262	0.0176513	-2047.6	0.722477
-0.877805	-48.5296	0.0139197	-1986.34	0.569739
-0.825325	-47.0307	0.0183032	-1924.99	0.749159
-0.770774	-45.4196	0.0153723	-1859.05	0.629196
-0.713085	-43.6274	0.0150531	-1785.69	0.616131
-0.660187	-41.9555	0.0152291	-1717.26	0.623334
-0.607072	-40.1716	0.0155702	-1644.24	0.637295
-0.549885	-38.1258	0.0161606	-1560.51	0.661463
-0.49527	-36.0638	0.0133409	-1476.11	0.546051
-0.442785	-33.9772	0.0140274	-1390.71	0.574147
-0.388413	-31.6276	0.0122552	-1294.53	0.50161
-0.33232	-29.0019	0.0108811	-1187.06	0.44537
-0.283592	-26.48	0.0129344	-1083.84	0.529412
-0.22772	-23.5557	0.0119567	-964.149	0.489396
-0.174616	-20.0265	0.0139572	-819.696	0.571274
-0.121119	-15.8978	0.0138508	-650.706	0.566919
-0.0687852	-10.4412	0.0190614	-427.365	0.780194
-0.0161424	-2.76606	0.0232808	-113.216	0.952895
0.0361527	6.09888	0.0212588	249.63	0.870134
0.0909389	13.0545	0.0161923	534.329	0.662757
0.141883	17.626	0.0169685	721.44	0.694531
0.196397	21.5682	0.0150293	882.799	0.615157
0.249686	24.853	0.0137613	1017.24	0.563256
0.298398	27.3655	0.0131075	1120.08	0.536497
0.353972	30.0204	0.0130858	1228.75	0.53561
0.407252	32.4722	0.0142075	1329.11	0.58152
0.459139	34.5479	0.0140327	1414.06	0.574367
0.514371	36.7059	0.013089	1502.39	0.535739
0.571389	38.8265	0.0129273	1589.19	0.52912
0.624313	40.6639	0.0173691	1664.39	0.710927
0.678319	42.4957	0.0126653	1739.37	0.518397
0.731884	44.213	0.0180952	1809.66	0.740646
0.789392	45.9717	0.0151208	1881.65	0.618902
0.842513	47.4864	0.0223748	1943.64	0.915812
0.897295	49.0274	0.0167432	2006.72	0.685306
0.949908	50.4401	0.0152515	2064.54	0.624251
1.00782	51.93	0.0192402	2125.52	0.787512
1.06412	53.3521	0.0230672	2183.73	0.944153
1.11961	54.6804	0.0183393	2238.1	0.750638
1.17534	55.9503	0.0179493	2290.08	0.734674
1.23191	57.2551	0.0238268	2343.48	0.975244
1.28793	58.44	0.0149859	2391.98	0.613379
1.3433	59.6152	0.0232589	2440.08	0.951998
1.39575	60.7033	0.0215524	2484.62	0.882152
1.44949	61.7866	0.0262387	2528.96	1.07397
1.50583	62.8562	0.0197186	2572.74	0.807091
1.5628	63.9486	0.019859	2617.45	0.812838
1.6215	65.074	0.0236977	2663.51	0.96996
1.67722	66.0412	0.0280352	2703.1	1.1475
1.73455	67.0497	0.0240998	2744.38	0.986418
1.79314	68.0673	0.0275743	2786.03	1.12863
1.84843	68.989	0.0310514	2823.76	1.27095
1.90667	69.9208	0.0327324	2861.9	1.33975
1.96546	70.8453	0.0285291	2899.73	1.16771
1.98018	71.1203	0.0413992	2910.99	1.69449
1.92521	70.28	0.0289988	2876.59	1.18694
1.87139	69.4069	0.0337797	2840.86	1.38262
1.81604	68.5076	0.029155	2804.05	1.19333
1.75817	67.5038	0.0319507	2762.97	1.30776
1.701575	66.5367	0.0301361	2723.38	1.23349
1.6415	65.4691	0.0222087	2679.68	0.909015
1.58381	64.4411	0.0266693	2637.61	1.09159
1.52772	63.36	0.0270567	2593.36	1.10744
1.46936	62.2429	0.0228945	2547.63	0.937084
1.41381	61.0761	0.0233044	2499.87	0.953863
1.35518	59.928	0.0260816	2452.89	1.06753
1.29956	58.7623	0.0237127	2405.17	0.970573
1.24458	57.5754	0.0259965	2356.59	1.06405
1.19102	56.3646	0.0260941	2307.03	1.06804
1.13153	55.0282	0.0210239	2252.33	0.860518
1.07507	53.6706	0.0183695	2196.77	0.751874
1.02175	52.3009	0.0180676	2140.7	0.739516
0.967036	50.9455	0.0222282	2085.23	0.909811
0.909544	49.431	0.0162366	2023.24	0.664574
0.851774	47.7717	0.0158461	1955.32	0.648589
0.798797	46.256	0.0184464	1893.28	0.755021
0.737721	44.445	0.0160636	1819.16	0.657491
0.681254	42.619	0.0201411	1744.42	0.824387
0.62944	40.9066	0.0156727	1674.33	0.64149
0.576575	39.0607	0.0164785	1598.78	0.674474
0.521737	37.0439	0.0119915	1516.23	0.490817
0.467651	35.0167	0.0146847	1433.25	0.601052
0.411115	32.6555	0.0150703	1336.61	0.616836
0.356507	30.1909	0.0108573	1235.73	0.444395
0.30393	27.675	0.0125608	1132.75	0.514122
0.247187	24.6165	0.01237	1007.56	0.506312
0.197494	21.5811	0.0131595	883.327	0.538625
0.14222	17.6162	0.0124079	721.039	0.507861
0.088173	12.787	0.0157373	523.38	0.644137
0.0360548	6.05657	0.0206578	247.899	0.845534
-3.19699e-05	-0.0966088	0.0150094	-3.95425	0.614344