Folder: PhDThesis/data/looselyPackedNP/nanoparticles/sas/ios-11/experimentalData

Note: README.md
# PhDThesis

Color palette:
- #0EA8DF #MatNat Blau
- #EE292F #Medizin Rot
- #FAAB2D #HumWis Orange
- #76C152 #Wiwi Gruen
- #7F0128 #Rechtswis Bordeaux
- #793394 #Philo Violett

Sample Translation
- Ol-CoFe-C : DD67
- Ac-CoFe-C : AH11
- Ac-CoFe-C-YF : YF45

File: saxs_PMK18.xye
#Reducing manually
#Set Sample to: PMK18
#Set Solvent to: Cyclohexane
#Set Pixel size to: 0.172
#Set Wavelength to: 1.3414e-10
#Set Time Sample LSDD to: 5940
#Set Time Sample SSDD to: 5400
#Set Time Solvent LSDD to: 5940
#Set Time Solvent SSDD to: 5400
#Set Time EC LSDD to: 5940
#Set Time EC SSDD to: 5400
#Set Monitor Sample LSDD to: 9783180
#Set Monitor Sample SSDD to: 14715000
#Set Monitor Solvent LSDD to: 9783180
#Set Monitor Solvent SSDD to: 14715000
#Set Monitor EC LSDD to: 9783180
#Set Monitor EC SSDD to: 14715000
#Set Transmission Sample to: 0.2965
#Set Transmission Solvent to: 0.55655
#Set Transmission EC to: 0.61075
#Set Thickness Sample to: 0.1864
#Set Thickness Solvent to: 0.14905
#Set FEP distance to: 3391
#Set FEP CF to: 1.211756
#Set FEP Peak Intensity to: 26.53
#Set Monitor FEP to: 988200
#Set LSDD to: 3531
#Set Beamcenter LSDD y to: 599.6
#Set Beamcenter LSDD z to: 347.5
#Set SSDD to: 836
#Set Beamcenter SSDD y to: 611.9
#Set Beamcenter SSDD z to: 387.5
#Set TIF File Sample LSDD to: PMK18_LSDD_5940s.tif
#Set TIF File Sample SSDD to: PMK18_SSDD_5400s.tif
#Set TIF File Solvent LSDD to: CHEX_LSDD_5940s.tif
#Set TIF File Solvent SSDD to: CHEX_SSDD_5400s.tif
#Set TIF File EC LSDD to: EC_LSDD_5940s.tif
#Set TIF File EC SSDD to: EC_SSDD_5400s.tif

#LSDD Data
#q / A-1	I / cm-1	sI / cm-1	I_sample / cm-1	sI_sample / cm-1	I_solvent / cm-1	sI_solvent / cm-1	I_raw_sample / a.u.	sI_raw_sample / a.u.	I_raw_solvent / a.u.	sI_raw_solvent / a.u.	I_raw_ec / a.u.	sI_raw_ec / a.u.
0.00326174	419.198	0.622063	20405.1	26.1169	398.586	11.0374	5807.96	5.82354	2164.81	3.55537	2184.602	3.57159
0.00601437	403.638	0.27222	19204.4	12.8858	29.3288	0.824538	4482.541	2.99558	39.99879	0.282971	29.8218	0.244335
0.00876699	363.024	0.212592	17245.1	10.0918	4.84042	0.216825	4013.446	2.34772	4.426732	0.0779704	2.52123	0.0588429
0.0115196	320.451	0.174175	15220.1	8.26984	2.13341	0.116397	3541.51	1.92395	1.739302	0.042637	0.8693777	0.0301442
0.0142722	281.74	0.156908	13380.8	7.45012	1.38583	0.0993144	3113.55	1.73324	1.30979	0.0355494	0.7563058	0.0270134
0.0170249	247.27	0.141251	11743.9	6.70662	1.29966	0.0939773	2732.7	1.56027	1.26053	0.0335103	0.743539	0.0257368
0.0197775	217.396	0.120812	10325.1	5.73608	1.23919	0.0849251	2402.62	1.33447	1.22832	0.0301731	0.7371708	0.0233749
0.0225301	192.439	0.104195	9139.88	4.94703	1.17104	0.0772441	2126.87	1.15089	1.19765	0.0273105	0.7361772	0.0214119
0.0252827	171.135	0.0971714	8128.02	4.61348	0.984846	0.0746146	1891.46	1.07329	1.11482	0.0260568	0.734511	0.0211503
0.0280353	152.068	0.0829577	7222.61	3.93855	1.01767	0.0671866	1680.8	0.916267	1.10913	0.0235372	0.712537	0.0188655
0.030788	135.561	0.0722331	6438.37	3.42931	0.760547	0.0613204	1498.365	0.797787	1.03504	0.020968	0.7544538	0.0179017
0.0335406	120.457	0.0695872	5721.43	3.30361	0.999064	0.0620085	1331.53	0.768544	1.066904	0.0217549	0.6751152	0.0173055
0.0362932	106.842	0.0611421	5074.65	2.90259	0.813502	0.0574444	1181.07	0.675244	1.01428	0.019788	0.7062902	0.0165126
0.0390458	94.0392	0.0543521	4466.83	2.58014	0.915849	0.0544321	1039.64	0.600227	1.03406	0.0189298	0.67895	0.0153388
0.0417984	81.7691	0.0483834	3884.11	2.2967	0.887198	0.0515477	904.0664	0.53428	1.01301	0.0178845	0.6695842	0.0145402
0.0445511	70.0298	0.0432975	3326.64	2.05512	0.878267	0.0504883	774.3795	0.478071	1.03192	0.0174517	0.6946099	0.0143181
0.0473037	58.9672	0.0383998	2801.27	1.8225	0.858811	0.0484774	652.148	0.423949	1.01549	0.0167293	0.685908	0.0137491
0.0500563	48.6927	0.0338118	2313.34	1.60461	0.841105	0.0459302	538.6105	0.373254	0.97334	0.0158672	0.648139	0.012948
0.0528089	39.2478	0.0294813	1864.79	1.39888	0.807673	0.0445284	434.2547	0.325386	0.9626622	0.0153202	0.6524431	0.0126124
0.0555615	30.8527	0.0254362	1466.1	1.20671	0.790552	0.0428274	341.492	0.28067	0.9396265	0.0147226	0.6353691	0.0121065
0.0583142	23.4881	0.021635	1116.4	1.02605	0.812229	0.0419635	260.134	0.238629	0.95206	0.0144363	0.6386252	0.0118235
0.0610668	17.3778	0.0181698	826.157	0.861374	0.743402	0.0401905	192.6	0.200306	0.9073502	0.0137485	0.6225453	0.0113881
0.0638194	12.4406	0.0156925	591.792	0.743416	0.814107	0.0411729	138.07	0.172845	0.9311778	0.0141946	0.614809	0.011534
0.066572	8.51764	0.012677	405.487	0.599942	0.804579	0.0397701	94.71916	0.139447	0.9147337	0.0137037	0.6013299	0.0111108
0.0693247	5.54974	0.00989489	264.521	0.467505	0.782168	0.0377566	61.9126	0.108611	0.885637	0.0129901	0.5801402	0.0105136
0.0720773	3.41636	0.00763987	163.2	0.359746	0.772621	0.0375528	38.35513	0.0834936	0.909785	0.0128591	0.6112145	0.0105399
0.0748299	1.95857	0.00572678	93.9667	0.268177	0.767017	0.0360955	22.23392	0.0621393	0.8814797	0.0123727	0.582839	0.0100608
0.0775825	1.05351	0.00421747	50.9385	0.195381	0.727611	0.035195	12.2239	0.0451183	0.865422	0.012005	0.5841015	0.00986263
0.0803351	0.545448	0.00321343	26.8545	0.145929	0.761651	0.0356774	6.62083	0.0334914	0.8806177	0.0122144	0.584464	0.00995074
0.0830878	0.360582	0.00274777	18.1055	0.122709	0.785531	0.0354791	4.57324	0.0280133	0.8683102	0.0122065	0.559514	0.00979845
0.0858404	0.386159	0.00281463	19.2171	0.126022	0.703158	0.0356105	4.84628	0.0287792	0.859433	0.0121194	0.5892486	0.0100352
0.088593	0.542379	0.00330637	26.6512	0.150452	0.715662	0.0359082	6.557504	0.034553	0.830432	0.0122961	0.551431	0.0100199
0.0913456	0.782953	0.00393717	38.0609	0.181383	0.704043	0.0362636	9.205614	0.0418213	0.813359	0.0124312	0.538263	0.0101127
0.0940982	1.02751	0.00448733	49.7066	0.207963	0.729821	0.0371595	11.9235	0.0480409	0.840483	0.0127548	0.555675	0.010371
0.0968509	1.25071	0.00494865	60.2677	0.230465	0.69928	0.0367327	14.3679	0.053316	0.803481	0.012608	0.5297054	0.0102371
0.0996035	1.43386	0.0053232	69.0302	0.248344	0.751536	0.0377243	16.4137	0.0574875	0.839635	0.0130022	0.544338	0.010469
0.102356	1.57121	0.00558828	75.4688	0.2612	0.684682	0.0374864	17.90989	0.0604911	0.807169	0.0128418	0.5407485	0.010511
0.105109	1.61954	0.00570225	77.7775	0.266663	0.695375	0.0376394	18.44437	0.0617673	0.8068731	0.012919	0.5352993	0.0105227
0.107861	1.59823	0.00567725	76.8821	0.265542	0.788586	0.0372531	18.2157	0.0615212	0.8094542	0.0129687	0.4934622	0.0101258
0.110614	1.54375	0.00571697	74.3064	0.267281	0.797847	0.0380527	17.6146	0.0619197	0.8100228	0.0132782	0.489648	0.0103237
0.113367	1.42756	0.0058424	68.7466	0.27296	0.764062	0.0397087	16.3153	0.063227	0.7843434	0.013863	0.477658	0.0108184
0.116119	1.26968	0.00537224	61.3134	0.250512	0.815111	0.0385712	14.5796	0.0579993	0.794756	0.0135415	0.464621	0.0103538
0.118872	1.0929	0.00497519	52.7503	0.231233	0.680714	0.0387616	12.6131	0.0534679	0.7843563	0.0133333	0.517616	0.0108314
0.121624	0.90228	0.00452024	43.8261	0.209258	0.782953	0.0382469	10.5219	0.0483431	0.8008218	0.0133369	0.4866885	0.0103971
0.124377	0.72894	0.00406757	35.458	0.187565	0.673686	0.0369001	8.56928	0.0432682	0.742359	0.0127351	0.474897	0.0101858
0.12713	0.559627	0.00362192	27.5948	0.165493	0.81524	0.0374581	6.737468	0.0380913	0.7996611	0.0131229	0.469942	0.01006
0.129882	0.419327	0.00318714	20.6877	0.144224	0.619651	0.0366954	5.14463	0.0330642	0.740738	0.0125462	0.4990134	0.0102976
0.132635	0.294629	0.00278143	15.0342	0.123805	0.834065	0.0368028	3.80931	0.0282728	0.7967963	0.0129306	0.4577764	0.00980105
0.135388	0.211244	0.00244387	10.9074	0.107103	0.700469	0.0357359	2.84957	0.0243071	0.739159	0.0123798	0.4585503	0.00975074
0.13814	0.148032	0.00228853	7.89553	0.0980429	0.692373	0.0374899	2.153677	0.0220826	0.7446975	0.0129852	0.4685075	0.0102995
0.140893	0.104425	0.00214898	5.83259	0.0899498	0.698652	0.038541	1.67037	0.0200992	0.7411403	0.0133882	0.461595	0.0105658
0.143645	0.0853966	0.00209389	4.97046	0.0862997	0.731807	0.0394933	1.471053	0.0191857	0.7579849	0.0137719	0.464191	0.0107774
0.146398	0.0855289	0.00214341	5.00996	0.0883748	0.75837	0.04038	1.47723	0.0196678	0.763927	0.0141435	0.457982	0.0109511
0.149151	0.103693	0.00223909	5.62061	0.0940697	0.556939	0.0396335	1.6193	0.0210207	0.675964	0.0135815	0.457985	0.0111792
0.151903	0.119871	0.0023675	6.53689	0.100396	0.67529	0.0404609	1.824269	0.0225592	0.7122432	0.0140959	0.4410794	0.0110927
0.154656	0.144376	0.00251708	7.62591	0.108375	0.615596	0.0403163	2.07238	0.0244701	0.6763173	0.013979	0.430262	0.0111498
0.157409	0.174141	0.00273205	9.20135	0.11883	0.745131	0.0416368	2.43275	0.0269674	0.721314	0.0146843	0.417563	0.0111725
0.160161	0.195937	0.00315523	10.1428	0.138004	0.670287	0.0466603	2.668495	0.0313677	0.7200047	0.0162936	0.4519942	0.0129097
0.162914	0.211201	0.00351444	10.9386	0.15435	0.727032	0.0507542	2.84974	0.0351637	0.7374547	0.0178879	0.44395	0.013879
0.165666	0.234414	0.00391507	12.0474	0.172978	0.732228	0.0544889	3.10688	0.0394918	0.738169	0.0192496	0.442244	0.0148996
0.168419	0.231825	0.00417213	11.8271	0.184372	0.654322	0.0579938	3.060554	0.0420787	0.7134196	0.0203159	0.452419	0.0161783
0.171172	0.215198	0.00437552	10.8485	0.192265	0.503192	0.0630002	2.8581	0.0437451	0.694764	0.021568	0.504373	0.0183766
0.173924	0.214394	0.00469194	11.107	0.207218	0.740395	0.0654718	2.866048	0.0473639	0.700381	0.0234139	0.396862	0.0176248
0.176677	0.196899	0.00491917	10.2924	0.215955	0.75341	0.071215	2.68201	0.0492903	0.7163133	0.0254732	0.408108	0.0192274
0.179429	0.178612	0.00516727	9.19407	0.224488	0.56952	0.0792259	2.468892	0.0509632	0.7156488	0.0274382	0.495505	0.0228313
# 0.182182	0.154709	0.00530616	8.29736	0.229863	0.760134	0.0825386	2.213291	0.0523079	0.710707	0.029641	0.398733	0.0222019
# 0.184935	0.136824	0.00534094	7.35162	0.230956	0.683031	0.0838123	1.97765	0.0525264	0.6477288	0.0300608	0.3665724	0.0226143
# 0.187687	0.111278	0.00543951	6.27033	0.231371	0.788434	0.0918377	1.72736	0.0524532	0.6961538	0.0332992	0.369201	0.02425
# 0.19044	0.0635632	0.00504422	3.63475	0.206235	0.492807	0.0974271	1.14229	0.0459208	0.6198069	0.033826	0.427093	0.0280791
# 0.193193	0.0242219	0.00422826	1.39459	0.165083	0.195397	0.0913947	0.5875624	0.0358217	0.42696	0.030536	0.357995	0.0279613
# 0.195945	0.0111147	0.00392125	0.675447	0.149403	0.118056	0.0888729	0.3845269	0.031974	0.3261297	0.0294461	0.28441	0.0274983
# 0.198698	0.0110575	0.00446337	0.0925356	0.164615	-0.345881	0.106762	0.327213	0.0332344	0.270505	0.0302176	0.4457032	0.0387878
# 0.20145	0.0146663	0.0051318	0.761816	0.199225	0.0522548	0.112224	0.401056	0.0429065	0.290703	0.0365296	0.2770675	0.0356626
# #0.204203	-0.00702038	0.00616052	0.411003	0.214806	0.595227	0.158806	0.296737	0.0458787	0.485209	0.0586665	0.230305	0.0404182
# #0.206956	0.00448595	0.009238	0.934588	0.348702	0.576978	0.212849	0.389333	0.0772016	0.422397	0.0804129	0.170121	0.0510323
# 0.20902	0.0249049	0.0223639	0.551184	0.924252	-0.504952	0.418266	0.361456	0.19683	0.06501851	0.0834802	0.296437	0.17825

#SSDD Data
#q / A-1	I / cm-1	sI / cm-1	I_sample / cm-1	sI_sample / cm-1	I_solvent / cm-1	sI_solvent / cm-1	I_raw_sample / a.u.	sI_raw_sample / a.u.	I_raw_solvent / a.u.	sI_raw_solvent / a.u.	I_raw_ec / a.u.	sI_raw_ec / a.u.
0.021717	194.428	0.109561	9234.19	5.2024	1.02636	0.0497902	57648.195	32.4768	15.475	0.532103	3.76864	0.262586
0.0328243	124.207	0.0380183	5899.36	1.80521	0.85481	0.0205182	36829.855	11.2692	13.5522	0.216172	3.86452	0.115436
0.0439316	72.0172	0.0191661	3420.92	0.909998	0.800221	0.013284	21357.676	5.68072	12.8641	0.139417	3.811364	0.0758869
0.0550389	32.2152	0.0108731	1530.79	0.516148	0.779095	0.011168	9558.201	3.22201	12.604	0.117002	3.79764	0.0642237
0.0661462	9.00958	0.00518892	428.788	0.246093	0.75656	0.00996733	2678.71	1.53603	12.3303	0.104213	3.787009	0.0577542
0.0772535	1.10518	0.00170248	53.401	0.0800293	0.734839	0.00916747	335.374	0.498896	12.2398	0.0953089	3.96707	0.0542601
0.0883608	0.489624	0.00110405	24.1599	0.0512991	0.726797	0.00865395	152.819	0.319263	12.125	0.0899293	3.944461	0.0512925
0.0994681	1.38942	0.00170474	66.9017	0.0803022	0.73698	0.00819462	419.613	0.50075	12.1875	0.0853401	3.88209	0.0481647
0.110575	1.51169	0.00166695	72.6959	0.0785661	0.727441	0.00773253	455.8596	0.489946	12.2172	0.080208	4.037358	0.0461085
0.121683	0.895063	0.00124252	43.4164	0.0582802	0.729331	0.00736806	273.024	0.363199	12.1415	0.0765915	3.93	0.0435753
0.13279	0.297563	0.00071395	15.0233	0.0327618	0.713883	0.00697668	95.83572	0.203491	12.0745	0.0722298	4.055158	0.0418586
0.143897	0.0873215	0.000429356	5.03346	0.0186345	0.709093	0.00661648	33.4336	0.1147	11.9459	0.068562	3.975601	0.0395526
0.155005	0.149617	0.000495805	7.99214	0.0221666	0.709427	0.00634621	51.8986	0.137123	11.9402	0.0657715	3.96506	0.0379015
0.166112	0.226635	0.000561981	11.6521	0.0255583	0.711464	0.00614064	74.77895	0.158524	12.0251	0.0635699	4.032015	0.0368102
0.177219	0.197946	0.000541444	10.2742	0.0245122	0.699076	0.00620668	66.14911	0.151926	11.8271	0.0642403	3.97399	0.0372376
0.188327	0.109875	0.000420157	6.09292	0.0184811	0.699869	0.00601257	40.0867	0.113987	11.9114	0.0621353	4.056364	0.0362598
0.199434	0.0503235	0.000317473	3.25851	0.0132786	0.694692	0.00570849	22.37826	0.0811449	11.8244	0.0589844	4.027409	0.0344239
0.210541	0.0447093	0.00029646	2.98715	0.0122991	0.690891	0.00547765	20.6736	0.0750355	11.7599	0.0565928	4.005587	0.0330287
0.221648	0.0611582	0.000312345	3.77119	0.0132487	0.693227	0.00533259	25.56549	0.0811783	11.7823	0.0551098	4.000101	0.0321106
0.232756	0.0645679	0.000325214	3.92026	0.0138348	0.682952	0.00548796	26.5695	0.0847752	11.7996	0.0564953	4.151231	0.0335093
0.243863	0.0489077	0.000290186	3.18429	0.0121164	0.689102	0.0052487	21.9106	0.0740061	11.7508	0.0541968	4.01854	0.0316938
0.25497	0.0311579	0.000252592	2.33884	0.0102081	0.687063	0.00503659	16.63016	0.0619291	11.722	0.0519933	4.01319	0.0304223
0.266078	0.0249945	0.000236452	2.04524	0.00940486	0.686326	0.00490503	14.8082	0.0568492	11.7339	0.0506051	4.035662	0.0296778
0.277185	0.0278267	0.000234712	2.17487	0.00940984	0.682437	0.00477673	15.6097	0.0569741	11.6738	0.0492704	4.019703	0.028912
0.288292	0.030703	0.000233108	2.30153	0.0094121	0.674507	0.0046592	16.4158	0.0570559	11.6096	0.0479821	4.051301	0.0283444
0.2994	0.0282092	0.000224647	2.18878	0.00901496	0.679041	0.00456102	15.7036	0.0545816	11.64715	0.0470064	4.03418	0.0276646
0.310507	0.0226741	0.000212431	1.90419	0.00838373	0.661653	0.00448621	14.02112	0.0505002	11.6202	0.0459735	4.22817	0.0277318
0.321614	0.0193997	0.00020277	1.76225	0.00793168	0.672493	0.00436557	13.0387	0.04773	11.5663	0.0449543	4.029661	0.0265344
0.332722	0.0190635	0.000198712	1.75095	0.00776256	0.67622	0.00429024	12.9703	0.0466989	11.6141	0.0441901	4.03421	0.0260442
0.343829	0.0201187	0.000196127	1.79127	0.00769055	0.66839	0.00420073	13.225	0.0462924	11.52798	0.0432204	4.040361	0.0255871
0.354936	0.0191965	0.000193041	1.76365	0.00754268	0.681322	0.0041659	13.0516	0.0453799	11.6776	0.0429249	4.03827	0.0252423
0.366043	0.017319	0.000193721	1.67115	0.00751935	0.678649	0.00423776	12.47844	0.0451651	11.6544	0.0436483	4.0472	0.0257217
0.377151	0.0158359	0.000197737	1.59633	0.00763177	0.675141	0.00437452	12.0224	0.0457715	11.6341	0.0450262	4.06999	0.0266315
0.388258	0.0149819	0.000200816	1.54913	0.0077304	0.669831	0.00446509	11.7002	0.0463425	11.52	0.0459842	4.013028	0.0271406
0.399365	0.0148342	0.000203114	1.54501	0.00780899	0.672144	0.00452711	11.7033	0.0467898	11.6012	0.0465853	4.072475	0.0276011
0.410473	0.0148403	0.000204883	1.54196	0.00788119	0.669474	0.00456188	11.6638	0.0472363	11.5316	0.0469677	4.03038	0.0277669
0.42158	0.0142792	0.000205857	1.51115	0.00789527	0.666139	0.00460928	11.508	0.0472632	11.56106	0.0473721	4.105609	0.0282301
0.432687	0.0137876	0.000215703	1.49227	0.00825943	0.669711	0.00484446	11.3663	0.0494492	11.5582	0.0498649	4.05651	0.0295411
0.443795	0.013047	0.000218537	1.46792	0.00833812	0.678363	0.00494048	11.2245	0.0498871	11.67873	0.0508865	4.077559	0.030068
0.454902	0.0129856	0.000214209	1.46284	0.00817325	0.676636	0.00484237	11.1803	0.0489024	11.635	0.049887	4.05181	0.0294394
0.466009	0.0130605	0.000214166	1.45715	0.00817262	0.66924	0.00484029	11.1631	0.0488777	11.5828	0.049788	4.08961	0.0295841
0.477116	0.0124629	0.000214613	1.45447	0.00816644	0.689789	0.00487534	11.1347	0.0488472	11.8016	0.0502888	4.065513	0.029516
0.488224	0.0120512	0.000213933	1.42384	0.00812291	0.68093	0.00487879	10.9707	0.0485305	11.7489	0.0502222	4.121519	0.0297458
0.499331	0.0118549	0.0002145	1.42711	0.00813692	0.690998	0.00489968	10.9828	0.0486248	11.8513	0.0505107	4.104422	0.0297254
0.510438	0.0120083	0.00021501	1.42763	0.00815956	0.68559	0.00490786	11.0058	0.048745	11.825	0.0505266	4.145187	0.0299151
0.521546	0.0117804	0.000214253	1.42215	0.0081201	0.689859	0.00490193	10.9822	0.0484939	11.895	0.050469	4.16708	0.0298715
0.532653	0.0117964	0.000213404	1.4331	0.00808901	0.698007	0.00488141	11.0394	0.0483289	11.9694	0.0503236	4.143969	0.0296103
0.54376	0.0123413	0.000213078	1.46121	0.00809667	0.699794	0.00485264	11.20921	0.0484101	11.9798	0.0500464	4.13234	0.0293931
0.554868	0.0119212	0.000212217	1.4436	0.00803782	0.701669	0.00486079	11.1688	0.0479835	12.1323	0.0500103	4.275571	0.0296883
0.565975	0.0115721	0.000209948	1.43958	0.00793616	0.711708	0.00482541	11.1565	0.0473605	12.2739	0.0496757	4.30194	0.0294093
0.577082	0.0118709	0.0002095	1.45051	0.00792574	0.709098	0.00480826	11.2534	0.0472883	12.2972	0.0494327	4.36097	0.0294377
0.58819	0.0120105	0.000214841	1.46818	0.00812822	0.71793	0.0049304	11.385	0.0485035	12.4405	0.0507021	4.40476	0.0301695
0.599297	0.012545	0.00022713	1.50467	0.00860771	0.726812	0.005197	11.6362	0.0513963	12.5887	0.0534584	4.45311	0.0317949
0.610404	0.0121526	0.000233696	1.50082	0.00883821	0.738636	0.0053666	11.6227	0.0527631	12.747	0.055256	4.4748	0.0327388
0.621511	0.0123144	0.000239285	1.50493	0.00904312	0.735774	0.00550176	11.7283	0.0539278	12.86341	0.0564773	4.639344	0.0339175
0.632619	0.0124976	0.000261126	1.53242	0.00987658	0.7508	0.0059955	11.8838	0.0589603	13.0093	0.0616891	4.60619	0.0367073
0.643726	0.012112	0.000284264	1.52048	0.010726	0.7559	0.00655373	11.8486	0.0639859	13.1429	0.06739	4.68723	0.0402447
0.654833	0.0128957	0.00031008	1.57081	0.0117326	0.76638	0.0071148	12.1801	0.0700598	13.2982	0.0732048	4.722873	0.0436261
0.665941	0.0127034	0.000336253	1.56772	0.0127011	0.771211	0.00773829	12.2101	0.0757908	13.4473	0.079538	4.82437	0.0476407
0.677048	0.0130089	0.000366983	1.59844	0.0138788	0.784175	0.00842771	12.3909	0.0828941	13.5786	0.0867761	4.80184	0.0516031
0.688155	0.0134992	0.000405217	1.62861	0.0153407	0.789684	0.00928891	12.6267	0.0916291	13.7323	0.0955564	4.899594	0.0570779
0.699263	0.0139685	0.000444697	1.66827	0.0168549	0.803575	0.0101733	12.8993	0.100726	13.9421	0.104718	4.951216	0.0624043
0.71037	0.0138248	0.000486165	1.67826	0.0183998	0.817019	0.0111503	13.0029	0.109923	14.177	0.114779	5.03614	0.0684097
0.721477	0.0144192	0.000529681	1.71477	0.0200837	0.823647	0.0121092	13.2483	0.120047	14.2873	0.124666	5.071918	0.0742777
0.732584	0.0141996	0.000542026	1.73637	0.0205261	0.849252	0.0124186	13.384	0.122742	14.5891	0.128149	5.073889	0.0755739
0.743692	0.0129197	0.000575022	1.72123	0.0216443	0.885749	0.0133123	13.3365	0.129312	15.105	0.137618	5.17069	0.0805175
0.754799	0.013685	0.000615533	1.78478	0.023236	0.907503	0.0141803	13.7124	0.139032	15.3207	0.146959	5.12766	0.0850195
0.765906	0.0134513	0.000661908	1.8067	0.0249425	0.933903	0.0152949	13.8866	0.149232	15.7003	0.158679	5.204781	0.0913619
0.777014	0.0118646	0.000656527	1.52796	0.0247697	0.771271	0.0151391	11.8307	0.148036	13.2018	0.156379	4.554192	0.0918474
0.788121	0.0103928	0.00068597	1.39486	0.0257962	0.720725	0.015906	10.8628	0.154034	12.3523	0.164256	4.27198	0.0965965
#0.799228	1.12748e-05	0.000235254	0.00249285	0.00795016	0.00156521	0.00627589	0.655468	0.0416752	1.081089	0.053522	1.15088	0.0552224
0.810336	0.000327705	0.000260437	0.0463729	0.00920792	0.0246373	0.00660205	0.782608	0.0512409	1.07591	0.0600807	0.84851	0.0533551
0.821443	0.000458458	0.000288502	0.000527265	0.0100177	-0.016987	0.00747308	0.6053254	0.052471	0.7926073	0.0600417	1.07287	0.0698547
0.83255	0.000691474	0.000367907	0.0597527	0.0133919	0.021523	0.00897187	0.8193247	0.0757617	0.951555	0.0816472	0.7520896	0.0725863
#0.843657	-0.000236323	0.000530181	0.0107391	0.0178163	0.0175609	0.0142247	0.6002633	0.0951472	1.06827	0.126931	0.931124	0.118503
#0.851988	2.17431e-05	0.00154648	0.0801598	0.0545677	0.0632721	0.0393	0.93403	0.313163	1.41695	0.38571	0.7259486	0.276078