Folder: PhDThesis/data/monolayers/nanoparticles/Ol_CoFe_C/vsm (part 2)

File: DD67_BGLinSub_rescale.xy
#Extracted data using VSM extraction tool v1.1
#Loaded parameter file: extractVSM.dat
#Desired unit of B: T
#Desired unit of M: memu
#Reading column for B: Applied Field
#Reading column for M: Raw Signal Mx
#Estimate noise level: 5e-3 memu
#Loading data from file: DD67-Hys-00.VHD
#Save data to file: DD67.xye
#Extraction performed at: Fri Nov 18 16:38:45 2016
#Unit of B in data: Oe
#Changing unit by multiplying with factor: 0.0001
#Unit of M in data: memu
#Applied image correction factors to M by linear interpolation of following values
#14999.0	1.0
#15247.0	1.000145
#15498.0	1.000209
#15748.0	1.000417
#15998.0	1.000699
#16248.0	1.001107
#16497.0	1.001462
#16747.0	1.001735
#16997.0	1.002153
#17247.0	1.002709
#17497.0	1.003192
#17747.0	1.003685
#17996.0	1.004307
#18246.0	1.004801
#18495.0	1.005497
#18746.0	1.006341
#18995.0	1.007251

#Substracted file: DD67.xye
#Using Slope: -1.4515
#Rescaled file: DD67_BGLinSub.xy
#Rescale Factor: 0.12335
#Sigma Scalefactor: 0.0
#B / T	M_scaled / kA\,m^{-1}	sM_scaled / kA\,m^{-1}	M_prescaling / memu	sM_prescaling / memu	M_raw / memu	sM_raw / memu
-0.0009	-0.159046	-0.0405351	-0.01961833	0.005	-0.01831198	0.005
0.0009	0.16083	0.0405351	0.01983837	0.005	0.01853202	0.005
0.0029	0.503203	0.0405351	0.06207003	0.005	0.05786068	0.005
0.0049	0.775098	0.0405351	0.09560837	0.005	0.08849602	0.005
0.0099	1.53084	0.0405351	0.188829	0.005	0.1744593	0.005
0.0149	2.24552	0.0405351	0.276985	0.005	0.2553578	0.005
0.0199	2.987	0.0405351	0.368447	0.005	0.3395617	0.005
0.0249	3.72661	0.0405351	0.459677	0.005	0.4235349	0.005
0.0299	4.41388	0.0405351	0.544452	0.005	0.5010526	0.005
0.0349	5.09971	0.0405351	0.629049	0.005	0.5783921	0.005
0.0399	5.87666	0.0405351	0.724887	0.005	0.6669717	0.005
0.0449	6.55137	0.0405351	0.808111	0.005	0.7429386	0.005
0.0499	7.27685	0.0405351	0.8976	0.005	0.8251702	0.005
0.0549	7.91279	0.0405351	0.976042	0.005	0.8963547	0.005
0.0599	8.56911	0.0405351	1.057	0.005	0.9700547	0.005
0.0649	9.23736	0.0405351	1.13943	0.005	1.045226	0.005
0.0698	9.86357	0.0405351	1.21667	0.005	1.115357	0.005
0.0749	10.4944	0.0405351	1.29448	0.005	1.185762	0.005
0.0799	11.1093	0.0405351	1.37033	0.005	1.254352	0.005
0.0849	11.7227	0.0405351	1.44599	0.005	1.322759	0.005
0.0899	12.2724	0.0405351	1.5138	0.005	1.383306	0.005
0.0948	12.8912	0.0405351	1.59013	0.005	1.452529	0.005
0.0999	13.4024	0.0405351	1.65319	0.005	1.508181	0.005
0.1999	22.4212	0.0405351	2.76566	0.005	2.475502	0.005
0.2998	29.0311	0.0405351	3.58099	0.005	3.145826	0.005
0.3999	34.0653	0.0405351	4.20195	0.005	3.621495	0.005
0.4998	38.2651	0.0405351	4.72	0.005	3.994543	0.005
0.5999	41.8555	0.0405351	5.16288	0.005	4.292125	0.005
0.6998	45.256	0.0405351	5.58232	0.005	4.566565	0.005
0.7999	48.5588	0.0405351	5.98973	0.005	4.828679	0.005
0.8998	51.0321	0.0405351	6.29481	0.005	4.988755	0.005
0.9999	53.6746	0.0405351	6.62076	0.005	5.169403	0.005
1.1998	58.3579	0.0405351	7.19845	0.005	5.456943	0.005
1.3998	62.7103	0.0405351	7.73531	0.005	5.703502	0.005
1.5998	66.5258	0.0405351	8.20595	0.005	5.879733	0.005
1.7997	70.1934	0.0405351	8.65835	0.005	6.020147	0.005
1.8001	70.2829	0.0405351	8.66939	0.005	6.030512	0.005
1.6001	66.5045	0.0405351	8.20334	0.005	5.876654	0.005
1.4001	62.833	0.0405351	7.75045	0.005	5.718206	0.005
1.2	58.6949	0.0405351	7.240015	0.005	5.498215	0.005
1.0	54.1476	0.0405351	6.679105	0.005	5.227605	0.005
0.9	51.4693	0.0405351	6.348735	0.005	5.042385	0.005
0.8	48.5203	0.0405351	5.98498	0.005	4.82378	0.005
0.7	45.529	0.0405351	5.616002	0.005	4.599952	0.005
0.6	41.9646	0.0405351	5.17633	0.005	4.30543	0.005
0.5	38.4028	0.0405351	4.736988	0.005	4.011238	0.005
0.4	34.2812	0.0405351	4.228585	0.005	3.647985	0.005
0.3	29.1509	0.0405351	3.595763	0.005	3.160313	0.005
0.2001	22.7368	0.0405351	2.80458	0.005	2.514133	0.005
0.1	13.6592	0.0405351	1.68486	0.005	1.53971	0.005
0.0949	13.1525	0.0405351	1.62236	0.005	1.48461	0.005
0.0899	12.4729	0.0405351	1.53853	0.005	1.408041	0.005
0.0849	11.968	0.0405351	1.47625	0.005	1.353021	0.005
0.0799	11.3096	0.0405351	1.39504	0.005	1.279065	0.005
0.0749	10.7114	0.0405351	1.32125	0.005	1.212536	0.005
0.0699	10.0709	0.0405351	1.24224	0.005	1.140784	0.005
0.0649	9.48462	0.0405351	1.16993	0.005	1.075725	0.005
0.0599	8.8229	0.0405351	1.0883	0.005	1.00136	0.005
0.0549	8.13935	0.0405351	1.00399	0.005	0.9243017	0.005
0.0499	7.46241	0.0405351	0.920489	0.005	0.8480587	0.005
0.0449	6.80002	0.0405351	0.838783	0.005	0.7736104	0.005
0.0399	6.08007	0.0405351	0.749976	0.005	0.6920614	0.005
0.0349	5.37071	0.0405351	0.662477	0.005	0.6118194	0.005
0.0299	4.66068	0.0405351	0.574895	0.005	0.5314954	0.005
0.0249	3.91095	0.0405351	0.482416	0.005	0.4462738	0.005
0.0199	3.17114	0.0405351	0.39116	0.005	0.3622751	0.005
0.0149	2.39957	0.0405351	0.295987	0.005	0.2743597	0.005
0.0099	1.66175	0.0405351	0.204976	0.005	0.1906065	0.005
0.0049	0.889512	0.0405351	0.109721	0.005	0.102609	0.005
0.0029	0.560901	0.0405351	0.06918717	0.005	0.06497782	0.005
0.0009	0.244199	0.0405351	0.0301219	0.005	0.02881555	0.005
-0.0008	-0.100077	-0.0405351	-0.01234455	0.005	-0.01118335	0.005
-0.0028	-0.419427	-0.0405351	-0.05173627	0.005	-0.04767207	0.005
-0.0048	-0.730835	-0.0405351	-0.09014849	0.005	-0.08318129	0.005
-0.0098	-1.5163	-0.0405351	-0.187036	0.005	-0.1728113	0.005
-0.0149	-2.29567	-0.0405351	-0.283171	0.005	-0.2615437	0.005
-0.0199	-3.06128	-0.0405351	-0.377609	0.005	-0.3487246	0.005
-0.0249	-3.81103	-0.0405351	-0.47009	0.005	-0.4339478	0.005
-0.0299	-4.58524	-0.0405351	-0.565589	0.005	-0.5221896	0.005
-0.0349	-5.32305	-0.0405351	-0.656599	0.005	-0.6059414	0.005
-0.0399	-6.02514	-0.0405351	-0.743201	0.005	-0.6852861	0.005
-0.0449	-6.72986	-0.0405351	-0.830128	0.005	-0.7649561	0.005
-0.0499	-7.44853	-0.0405351	-0.918776	0.005	-0.8463463	0.005
-0.0549	-8.12612	-0.0405351	-1.00236	0.005	-0.9226692	0.005
-0.0599	-8.71636	-0.0405351	-1.07516	0.005	-0.9882179	0.005
-0.0649	-9.40387	-0.0405351	-1.15997	0.005	-1.065765	0.005
-0.0699	-10.0418	-0.0405351	-1.23865	0.005	-1.137191	0.005
-0.0749	-10.7147	-0.0405351	-1.32166	0.005	-1.212944	0.005
-0.0799	-11.3129	-0.0405351	-1.39545	0.005	-1.279473	0.005
-0.0849	-11.8886	-0.0405351	-1.46646	0.005	-1.343227	0.005
-0.0899	-12.4378	-0.0405351	-1.5342	0.005	-1.403715	0.005
-0.0949	-12.9572	-0.0405351	-1.59827	0.005	-1.460527	0.005
-0.0999	-13.611	-0.0405351	-1.67892	0.005	-1.533913	0.005
-0.1997	-22.6255	-0.0405351	-2.79085	0.005	-2.50099	0.005
-0.2998	-28.8991	-0.0405351	-3.5647	0.005	-3.129539	0.005
-0.3997	-33.9931	-0.0405351	-4.19305	0.005	-3.612884	0.005
-0.4998	-38.2701	-0.0405351	-4.72062	0.005	-3.995156	0.005
-0.5998	-41.8848	-0.0405351	-5.16649	0.005	-4.295881	0.005
-0.6998	-45.1342	-0.0405351	-5.56731	0.005	-4.551546	0.005
-0.7998	-48.3022	-0.0405351	-5.95808	0.005	-4.79717	0.005
-0.8998	-51.011	-0.0405351	-6.2922	0.005	-4.986143	0.005
-0.9998	-53.9321	-0.0405351	-6.65253	0.005	-5.20132	0.005
-1.1997	-58.1222	-0.0405351	-7.16937	0.005	-5.428005	0.005
-1.3997	-63.3226	-0.0405351	-7.81084	0.005	-5.779177	0.005
-1.5996	-67.0135	-0.0405351	-8.26611	0.005	-5.940156	0.005
-1.7997	-70.0556	-0.0405351	-8.64136	0.005	-6.003231	0.005
-1.8	-69.9752	-0.0405351	-8.63144	0.005	-5.992877	0.005
-1.6	-66.3642	-0.0405351	-8.18602	0.005	-5.859507	0.005
-1.3999	-62.8002	-0.0405351	-7.7464	0.005	-5.714448	0.005
-1.2	-58.5466	-0.0405351	-7.221724	0.005	-5.479924	0.005
[...]
-0.7	-45.1591	-0.0405351	-5.570371	0.005	-4.554321	0.005
-0.5999	-41.8853	-0.0405351	-5.16655	0.005	-4.295799	0.005
-0.5	-38.4194	-0.0405351	-4.739028	0.005	-4.013278	0.005
-0.3999	-34.0689	-0.0405351	-4.2024	0.005	-3.621944	0.005
-0.2999	-29.1147	-0.0405351	-3.59129	0.005	-3.155988	0.005
-0.1999	-22.7536	-0.0405351	-2.80665	0.005	-2.5165	0.005
-0.1	-13.6824	-0.0405351	-1.687718	0.005	-1.542568	0.005
-0.0949	-13.1346	-0.0405351	-1.62015	0.005	-1.482404	0.005
-0.0899	-12.5066	-0.0405351	-1.54269	0.005	-1.412203	0.005
-0.0849	-11.9865	-0.0405351	-1.47854	0.005	-1.355306	0.005
-0.0799	-11.3659	-0.0405351	-1.40198	0.005	-1.286004	0.005
-0.0749	-10.7736	-0.0405351	-1.32893	0.005	-1.220211	0.005
-0.0699	-10.1099	-0.0405351	-1.24706	0.005	-1.1456	0.005
-0.0649	-9.49918	-0.0405351	-1.17172	0.005	-1.077521	0.005
-0.0599	-8.81892	-0.0405351	-1.08781	0.005	-1.000869	0.005
-0.0549	-8.18302	-0.0405351	-1.00938	0.005	-0.9296877	0.005
-0.0499	-7.50674	-0.0405351	-0.925957	0.005	-0.853527	0.005
-0.0449	-6.84634	-0.0405351	-0.844496	0.005	-0.779324	0.005
-0.0399	-6.10123	-0.0405351	-0.752587	0.005	-0.6946722	0.005
-0.0349	-5.41901	-0.0405351	-0.668435	0.005	-0.6177774	0.005
-0.0299	-4.69708	-0.0405351	-0.579385	0.005	-0.5359851	0.005
-0.0249	-3.94537	-0.0405351	-0.486661	0.005	-0.4505187	0.005
-0.0199	-3.17908	-0.0405351	-0.39214	0.005	-0.3632548	0.005
-0.0149	-2.43597	-0.0405351	-0.300477	0.005	-0.2788495	0.005
-0.0099	-1.67962	-0.0405351	-0.207181	0.005	-0.1928107	0.005
-0.0049	-0.892822	-0.0405351	-0.11013	0.005	-0.1030173	0.005
-0.003	-0.591195	-0.0405351	-0.07292386	0.005	-0.06856936	0.005
-0.001	-0.277141	-0.0405351	-0.03418529	0.005	-0.03273379	0.005
0.0009	0.0628712	0.0405351	0.007755158	0.005	0.006448808	0.005
0.0029	0.398103	0.0405351	0.04910601	0.005	0.04489666	0.005
0.0049	0.722084	0.0405351	0.08906907	0.005	0.08195672	0.005
0.0099	1.52211	0.0405351	0.187752	0.005	0.1733826	0.005
0.0149	2.31023	0.0405351	0.284967	0.005	0.2633395	0.005
0.0199	3.05665	0.0405351	0.377038	0.005	0.3481529	0.005
0.0249	3.8322	0.0405351	0.472702	0.005	0.4365599	0.005
0.0299	4.5773	0.0405351	0.56461	0.005	0.5212101	0.005
0.0349	5.32638	0.0405351	0.657009	0.005	0.6063512	0.005
0.0399	6.0258	0.0405351	0.743282	0.005	0.6853671	0.005
0.0449	6.77024	0.0405351	0.835109	0.005	0.7699368	0.005
0.0499	7.43133	0.0405351	0.916654	0.005	0.8442241	0.005
0.0549	8.13935	0.0405351	1.00399	0.005	0.9243017	0.005
0.0599	8.76731	0.0405351	1.08145	0.005	0.9945023	0.005
0.0648	9.44239	0.0405351	1.16472	0.005	1.070662	0.005
0.0698	9.97508	0.0405351	1.23043	0.005	1.129111	0.005
0.0749	10.6651	0.0405351	1.31554	0.005	1.206823	0.005
0.0799	11.26	0.0405351	1.38892	0.005	1.272944	0.005
0.0849	11.8218	0.0405351	1.45822	0.005	1.334983	0.005
0.0899	12.465	0.0405351	1.53755	0.005	1.407062	0.005
0.0949	12.9963	0.0405351	1.60309	0.005	1.465344	0.005
0.0999	13.5541	0.0405351	1.6719	0.005	1.526894	0.005
0.1999	22.4465	0.0405351	2.76878	0.005	2.478623	0.005
0.2998	28.8944	0.0405351	3.56413	0.005	3.128969	0.005
0.3999	33.9888	0.0405351	4.19252	0.005	3.612066	0.005
0.4998	37.9485	0.0405351	4.68094	0.005	3.955484	0.005
0.5998	41.9073	0.0405351	5.16927	0.005	4.298656	0.005
0.6998	45.0522	0.0405351	5.55718	0.005	4.541424	0.005
0.7999	48.3603	0.0405351	5.96525	0.005	4.804192	0.005
0.8998	50.7919	0.0405351	6.26518	0.005	4.959123	0.005
0.9999	53.3721	0.0405351	6.58345	0.005	5.132098	0.005
1.1998	58.2848	0.0405351	7.18943	0.005	5.447924	0.005
1.3998	62.7996	0.0405351	7.74633	0.005	5.714524	0.005
1.5998	65.9689	0.0405351	8.13726	0.005	5.811092	0.005
1.7997	69.8756	0.0405351	8.61916	0.005	5.981121	0.005
1.8997	71.3277	0.0405351	8.79827	0.005	5.997369	0.005

File: DD67_LangevinSAXSscaled.xye
#Executed at: 2018-10-26 14:26:38.5286
#loaded_file	 = ./DD67_BGLinSub.xy
#particle info	 = Superball Model, r = 56.2266 A, p = 1.53774
#fit report	 = [[Fit Statistics]]
#    # fitting method   = leastsq
#    # function evals   = 43
#    # data points      = 352
#    # variables        = 3
#    chi-square         = 66515.9
#    reduced chi-square = 190.59
#    Akaike info crit   = 1851.03
#    Bayesian info crit = 1862.62
#[[Variables]]
#    Ms:   4.31092 +/- 0.02920903 (0.68%) (init = 1)
#    mu:   4685.55 +/- 45.9161 (0.98%) (init = 10000)
#    chi:  2.61325 +/- 0.02025190 (0.77%) (init = 0)
#    T:    300 (fixed)
#[[Correlations]] (unreported correlations are < 0.100)
#    C(Ms, chi) = -0.948
#    C(Ms, mu)  = -0.843
#    C(mu, chi) =  0.734
#Ms Should	 = 42.3362 kA/m
#Rescale Factor	 = 9.82069
#[[Data]]
#B/T	M/kAm-1	sM/kAm-1	M_raw/memu	sM_raw/memu
-0.0009	-0.192666	0.0491035	-0.01961833	0.005
0.0009	0.194827	0.0491035	0.01983837	0.005
0.0029	0.609571	0.0491035	0.06207003	0.005
0.0049	0.938941	0.0491035	0.09560837	0.005
0.0099	1.85443	0.0491035	0.188829	0.005
0.0149	2.72019	0.0491035	0.276985	0.005
0.0199	3.6184	0.0491035	0.368447	0.005
0.0249	4.51435	0.0491035	0.459677	0.005
0.0299	5.3469	0.0491035	0.544452	0.005
0.0349	6.1777	0.0491035	0.629049	0.005
0.0399	7.11889	0.0491035	0.724887	0.005
0.0449	7.93621	0.0491035	0.808111	0.005
0.0499	8.81506	0.0491035	0.8976	0.005
0.0549	9.58541	0.0491035	0.976042	0.005
0.0599	10.3805	0.0491035	1.057	0.005
0.0649	11.19	0.0491035	1.13943	0.005
0.0698	11.9486	0.0491035	1.21667	0.005
0.0749	12.7127	0.0491035	1.29448	0.005
0.0799	13.4576	0.0491035	1.37033	0.005
0.0849	14.2006	0.0491035	1.44599	0.005
0.0899	14.8665	0.0491035	1.5138	0.005
0.0948	15.6162	0.0491035	1.59013	0.005
0.0999	16.2354	0.0491035	1.65319	0.005
0.1999	27.1607	0.0491035	2.76566	0.005
0.2998	35.1678	0.0491035	3.58099	0.005
0.3999	41.2661	0.0491035	4.20195	0.005
0.4998	46.3537	0.0491035	4.72	0.005
0.5999	50.7031	0.0491035	5.16288	0.005
0.6998	54.8223	0.0491035	5.58232	0.005
0.7999	58.8233	0.0491035	5.98973	0.005
0.8998	61.8195	0.0491035	6.29481	0.005
0.9999	65.0204	0.0491035	6.62076	0.005
1.1998	70.6938	0.0491035	7.19845	0.005
1.3998	75.9661	0.0491035	7.73531	0.005
1.5998	80.5882	0.0491035	8.20595	0.005
1.7997	85.031	0.0491035	8.65835	0.005
1.8001	85.1394	0.0491035	8.66939	0.005
1.6001	80.5625	0.0491035	8.20334	0.005
1.4001	76.1148	0.0491035	7.75045	0.005
1.2	71.102	0.0491035	7.240015	0.005
1.0	65.5934	0.0491035	6.679105	0.005
0.9	62.349	0.0491035	6.348735	0.005
0.8	58.7767	0.0491035	5.98498	0.005
0.7	55.153	0.0491035	5.616002	0.005
0.6	50.8352	0.0491035	5.17633	0.005
0.5	46.5205	0.0491035	4.736988	0.005
0.4	41.5276	0.0491035	4.228585	0.005
0.3	35.3129	0.0491035	3.595763	0.005
0.2001	27.5429	0.0491035	2.80458	0.005
0.1	16.5465	0.0491035	1.68486	0.005
0.0949	15.9327	0.0491035	1.62236	0.005
0.0899	15.1094	0.0491035	1.53853	0.005
0.0849	14.4978	0.0491035	1.47625	0.005
0.0799	13.7003	0.0491035	1.39504	0.005
0.0749	12.9756	0.0491035	1.32125	0.005
0.0699	12.1997	0.0491035	1.24224	0.005
0.0649	11.4895	0.0491035	1.16993	0.005
0.0599	10.6879	0.0491035	1.0883	0.005
0.0549	9.85987	0.0491035	1.00399	0.005
0.0499	9.03984	0.0491035	0.920489	0.005
0.0449	8.23743	0.0491035	0.838783	0.005
0.0399	7.36529	0.0491035	0.749976	0.005
0.0349	6.50598	0.0491035	0.662477	0.005
0.0299	5.64587	0.0491035	0.574895	0.005
0.0249	4.73766	0.0491035	0.482416	0.005
0.0199	3.84146	0.0491035	0.39116	0.005
0.0149	2.9068	0.0491035	0.295987	0.005
0.0099	2.01301	0.0491035	0.204976	0.005
0.0049	1.07754	0.0491035	0.109721	0.005
0.0029	0.679466	0.0491035	0.06918717	0.005
0.0009	0.295818	0.0491035	0.0301219	0.005
-0.0008	-0.121232	0.0491035	-0.01234455	0.005
-0.0028	-0.508086	0.0491035	-0.05173627	0.005
-0.0048	-0.885321	0.0491035	-0.09014849	0.005
-0.0098	-1.83682	0.0491035	-0.187036	0.005
-0.0149	-2.78094	0.0491035	-0.283171	0.005
-0.0199	-3.70839	0.0491035	-0.377609	0.005
-0.0249	-4.61661	0.0491035	-0.47009	0.005
-0.0299	-5.55448	0.0491035	-0.565589	0.005
-0.0349	-6.44826	0.0491035	-0.656599	0.005
-0.0399	-7.29875	0.0491035	-0.743201	0.005
-0.0449	-8.15244	0.0491035	-0.830128	0.005
-0.0499	-9.02302	0.0491035	-0.918776	0.005
-0.0549	-9.84384	0.0491035	-1.00236	0.005
-0.0599	-10.5588	0.0491035	-1.07516	0.005
-0.0649	-11.3917	0.0491035	-1.15997	0.005
-0.0699	-12.1644	0.0491035	-1.23865	0.005
-0.0749	-12.9796	0.0491035	-1.32166	0.005
-0.0799	-13.7043	0.0491035	-1.39545	0.005
-0.0849	-14.4016	0.0491035	-1.46646	0.005
-0.0899	-15.067	0.0491035	-1.5342	0.005
-0.0949	-15.6962	0.0491035	-1.59827	0.005
-0.0999	-16.4881	0.0491035	-1.67892	0.005
-0.1997	-27.4081	0.0491035	-2.79085	0.005
-0.2998	-35.0078	0.0491035	-3.5647	0.005
-0.3997	-41.1786	0.0491035	-4.19305	0.005
-0.4998	-46.3597	0.0491035	-4.72062	0.005
-0.5998	-50.7385	0.0491035	-5.16649	0.005
-0.6998	-54.6748	0.0491035	-5.56731	0.005
-0.7998	-58.5125	0.0491035	-5.95808	0.005
-0.8998	-61.7938	0.0491035	-6.2922	0.005
-0.9998	-65.3325	0.0491035	-6.65253	0.005
-1.1997	-70.4082	0.0491035	-7.16937	0.005
-1.3997	-76.7079	0.0491035	-7.81084	0.005
-1.5996	-81.179	0.0491035	-8.26611	0.005
-1.7997	-84.8642	0.0491035	-8.64136	0.005
-1.8	-84.7667	0.0491035	-8.63144	0.005
-1.6	-80.3924	0.0491035	-8.18602	0.005
-1.3999	-76.0751	0.0491035	-7.7464	0.005
-1.2	-70.9223	0.0491035	-7.221724	0.005
-0.9999	-64.7447	0.0491035	-6.59268	0.005
-0.8999	-61.7383	0.0491035	-6.28655	0.005
-0.7999	-58.3736	0.0491035	-5.94394	0.005
-0.7	-54.7049	0.0491035	-5.570371	0.005
-0.5999	-50.7391	0.0491035	-5.16655	0.005
-0.5	-46.5405	0.0491035	-4.739028	0.005
-0.3999	-41.2705	0.0491035	-4.2024	0.005
-0.2999	-35.269	0.0491035	-3.59129	0.005
-0.1999	-27.5633	0.0491035	-2.80665	0.005
-0.1	-16.5746	0.0491035	-1.687718	0.005
-0.0949	-15.911	0.0491035	-1.62015	0.005
-0.0899	-15.1503	0.0491035	-1.54269	0.005
-0.0849	-14.5203	0.0491035	-1.47854	0.005
-0.0799	-13.7684	0.0491035	-1.40198	0.005
-0.0749	-13.051	0.0491035	-1.32893	0.005
-0.0699	-12.247	0.0491035	-1.24706	0.005
-0.0649	-11.5071	0.0491035	-1.17172	0.005
-0.0599	-10.6831	0.0491035	-1.08781	0.005
-0.0549	-9.91276	0.0491035	-1.00938	0.005
-0.0499	-9.09354	0.0491035	-0.925957	0.005
-0.0449	-8.29354	0.0491035	-0.844496	0.005
-0.0399	-7.39093	0.0491035	-0.752587	0.005
-0.0349	-6.56449	0.0491035	-0.668435	0.005
-0.0299	-5.68996	0.0491035	-0.579385	0.005
-0.0249	-4.77935	0.0491035	-0.486661	0.005
-0.0199	-3.85108	0.0491035	-0.39214	0.005
-0.0149	-2.95089	0.0491035	-0.300477	0.005
-0.0099	-2.03466	0.0491035	-0.207181	0.005
-0.0049	-1.08155	0.0491035	-0.11013	0.005
-0.003	-0.716163	0.0491035	-0.07292386	0.005
-0.001	-0.335723	0.0491035	-0.03418529	0.005
0.0009	0.076161	0.0491035	0.007755158	0.005
0.0029	0.482255	0.0491035	0.04910601	0.005
0.0049	0.87472	0.0491035	0.08906907	0.005
0.0099	1.84386	0.0491035	0.187752	0.005
0.0149	2.79857	0.0491035	0.284967	0.005
0.0199	3.70277	0.0491035	0.377038	0.005
0.0249	4.64226	0.0491035	0.472702	0.005
0.0299	5.54486	0.0491035	0.56461	0.005
0.0349	6.45228	0.0491035	0.657009	0.005
0.0399	7.29954	0.0491035	0.743282	0.005
0.0449	8.20135	0.0491035	0.835109	0.005
0.0499	9.00218	0.0491035	0.916654	0.005
0.0549	9.85987	0.0491035	1.00399	0.005
0.0599	10.6206	0.0491035	1.08145	0.005
0.0648	11.4384	0.0491035	1.16472	0.005
0.0698	12.0836	0.0491035	1.23043	0.005
0.0749	12.9195	0.0491035	1.31554	0.005
0.0799	13.6401	0.0491035	1.38892	0.005
0.0849	14.3207	0.0491035	1.45822	0.005
0.0899	15.0998	0.0491035	1.53755	0.005
0.0949	15.7435	0.0491035	1.60309	0.005
0.0999	16.4192	0.0491035	1.6719	0.005
0.1999	27.1913	0.0491035	2.76878	0.005
0.2998	35.0022	0.0491035	3.56413	0.005
0.3999	41.1735	0.0491035	4.19252	0.005
0.4998	45.9701	0.0491035	4.68094	0.005
0.5998	50.7658	0.0491035	5.16927	0.005
0.6998	54.5754	0.0491035	5.55718	0.005
0.7999	58.5829	0.0491035	5.96525	0.005
0.8998	61.5284	0.0491035	6.26518	0.005
0.9999	64.6541	0.0491035	6.58345	0.005
1.1998	70.6052	0.0491035	7.18943	0.005
1.3998	76.0744	0.0491035	7.74633	0.005
1.5998	79.9136	0.0491035	8.13726	0.005
1.7997	84.6461	0.0491035	8.61916	0.005
1.8997	86.4051	0.0491035	8.79827	0.005