Folder: PhDThesis/data/monolayers/nanoparticles/Ol_CoFe_C/xrd

Note: README.md
# PhDThesis

Color palette:
- #0EA8DF #MatNat Blau
- #EE292F #Medizin Rot
- #FAAB2D #HumWis Orange
- #76C152 #Wiwi Gruen
- #7F0128 #Rechtswis Bordeaux
- #793394 #Philo Violett

Sample Translation
- Ol-CoFe-C : DD67
- Ac-CoFe-C : AH11
- Ac-CoFe-C-YF : YF45

File: DD67.dat
 5.013  5336
 5.273  5104
 5.533  5058
 5.793  4767
 6.053  4696
 6.313  4520
 6.573  4241
 6.833  4254
 7.093  4024
 7.353  4028
 7.613  3901
 7.873  3874
 8.133  3624
 8.393  3660
 8.653  3608
 8.913  3526
 9.173  3421
 9.433  3492
 9.693  3201
 9.953  3222
 10.213  3196
 10.473  3074
 10.733  3196
 10.993  3099
 11.253  3070
 11.513  3151
 11.773  3147
 12.033  3049
 12.293  3083
 12.553  3033
 12.813  3118
 13.073  3020
 13.333  3098
 13.593  3001
 13.853  2997
 14.113  2972
 14.373  2922
 14.633  2904
 14.893  2824
 15.153  2817
 15.413  2803
 15.673  2960
 15.933  2947
 16.193  2938
 16.453  3077
 16.713  2942
 16.973  3031
 17.233  2985
 17.493  3057
 17.753  3150
 18.013  3002
 18.273  3093
 18.533  3100
 18.793  3075
 19.053  3078
 19.313  3094
 19.573  3159
 19.833  3093
 20.093  3224
 20.353  3209
 20.613  3281
 20.873  3257
 21.133  3313
 21.393  3291
 21.653  3388
 21.913  3373
 22.173  3414
 22.433  3463
 22.693  3510
 22.953  3516
 23.213  3610
 23.473  3583
 23.733  3661
 23.993  3642
 24.253  3582
 24.513  3605
 24.773  3586
 25.033  3580
 25.293  3686
 25.553  3638
 25.813  3574
 26.073  3675
 26.333  3774
 26.593  3629
 26.853  3582
 27.113  3590
 27.373  3654
 27.633  3595
 27.893  3725
 28.153  3721
 28.413  3768
 28.673  3810
 28.933  3771
 29.193  3935
 29.453  3850
 29.713  3933
 29.973  3850
 30.233  3814
 30.493  3837
 30.753  3714
 31.013  3638
 31.273  3680
 31.533  3652
 31.793  3627
 32.053  3620
 32.313  3537
 32.573  3621
 32.833  3730
 33.093  3780
 33.353  3845
 33.613  4017
 33.873  4191
 34.133  4443
 34.393  4772
 34.653  5092
 34.913  5258
 35.173  5420
 35.433  5350
 35.693  5033
 35.953  4677
 36.213  4495
 36.473  4215
 36.733  3964
 36.993  3948
 37.253  3453
 37.513  3211
 37.773  3050
 38.033  2847
 38.293  2890
 38.553  2780
 38.813  2693
 39.073  2569
 39.333  2597
 39.593  2568
 39.853  2546
 40.113  2540
 40.373  2528
 40.633  2442
 40.893  2514
 41.153  2565
 41.413  2519
 41.673  2460
 41.933  2419
 42.193  2865
 42.453  3679
 42.713  4800
 42.973  5296
 43.233  4509
 43.493  3335
 43.753  2618
 44.013  2425
 44.273  2558
 44.533  2452
 44.793  2452
 45.053  2450
 45.313  2438
 45.573  2357
 45.833  2359
 46.093  2360
 46.353  2417
 46.613  2264
 46.873  2397
 47.133  2439
 47.393  2323
 47.653  2282
 47.913  2340
 48.173  2324
 48.433  2314
 48.693  2384
 48.953  2386
 49.213  2374
 49.473  2463
 49.733  2437
 49.993  2495
 50.253  2426
 50.513  2462
 50.773  2477
 51.033  2371
 51.293  2416
 51.553  2370
 51.813  2271
 52.073  2444
 52.333  2349
 52.593  2271
 52.853  2315
 53.113  2298
 53.373  2283
 53.633  2257
 53.893  2221
 54.153  2273
 54.413  2369
 54.673  2398
 54.933  2373
 55.193  2444
 55.453  2381
 55.713  2496
 55.973  2545
 56.233  2593
 56.493  2624
 56.753  2673
 57.013  2576
 57.273  2727
 57.533  2541
 57.793  2661
 58.053  2510
 58.313  2408
 58.573  2402
 58.833  2337
 59.093  2277
 59.353  2253
 59.613  2224
 59.873  2097
 60.133  2158
 60.393  2118
 60.653  2130
 60.913  2152
 61.173  2193
 61.433  2295
 61.693  2578
 61.953  2922
 62.213  3491
 62.473  3608
 62.733  2992
 62.993  2412
 63.253  2271
 63.513  2237
 63.773  2165
 64.033  2228
 64.293  2147
 64.553  2178
 64.813  2131
 65.073  2072
 65.333  2063
 65.593  2062
 65.853  2026
 66.113  2054
 66.373  2072
 66.633  2060
 66.893  2047
 67.153  2039
 67.413  2168
 67.673  2074
 67.933  2084
 68.193  2156
 68.453  2101
 68.713  2052
 68.973  2111
 69.233  2121
 69.493  2077
 69.753  2019
 70.013  2062
 70.273  2082
 70.533  2112
 70.793  2057
 71.053  2044
 71.313  2037
 71.573  1966
 71.833  1974
 72.093  2002
 72.353  1961
 72.613  1973
 72.873  1987
 73.133  2069
 73.393  2013
 73.653  2059
 73.913  2043
 74.173  2187
 74.433  2216
 74.693  2215
 74.953  2208
 75.213  2145
 75.473  2056
 75.733  2066
 75.993  2052
 76.253  1968
 76.513  2042
 76.773  2072
 77.033  2020
 77.293  2071
 77.553  2059
 77.813  2006
 78.073  2041
 78.333  2115
 78.593  2017
 78.853  2049
 79.113  2075
 79.373  1929
 79.633  1917
 79.867  1909