Folder: PhDThesis/data/colloidalCrystals/nanoparticles/vsm/postOxidationStep/rawdata

Note: README.md
# PhDThesis

Color palette:
- #0EA8DF #MatNat Blau
- #EE292F #Medizin Rot
- #FAAB2D #HumWis Orange
- #76C152 #Wiwi Gruen
- #7F0128 #Rechtswis Bordeaux
- #793394 #Philo Violett

Sample Translation
- Ol-CoFe-C : DD67
- Ac-CoFe-C : AH11
- Ac-CoFe-C-YF : YF45

File: dd147_stabledry_2_BGLinSub.xy
#Extracted data using VSM extraction tool v1.1
#Loaded parameter file: extractVSM.dat
#Desired unit of B: T
#Desired unit of M: memu
#Reading column for B: Applied Field
#Reading column for M: Raw Signal Mx
#Estimate noise level: 5e-3 memu
#Loading data from file: dd147_stabledry_2-Hys-00.VHD
#Save data to file: dd147_stabledry_2.xye
#Extraction performed at: Fri Oct 14 13:35:57 2016
#Unit of B in data: Oe
#Changing unit by multiplying with factor: 0.0001
#Unit of M in data: memu
#Applied image correction factors to M by linear interpolation of following values
#14997.0	1.0
#15246.0	1.000145
#15496.0	1.000446
#15746.0	1.000592
#15995.0	1.000892
#16246.0	1.001261
#16495.0	1.001631
#16745.0	1.002
#16995.0	1.002448
#17245.0	1.002965
#17495.0	1.003491
#17745.0	1.004009
#17994.0	1.004605
#18244.0	1.005202
#18494.0	1.006025
#18744.0	1.006702
#18994.0	1.007597

#Substracted file: dd147_stabledry_2.xye
#Using Slope: -1.301
#BG Scalefactor: 1
#BG Sigma Slope: 0.0
#B / T	M_sub / memu	sM_sub / memu	M_extracted / memu	sM_extracted / memu	M_raw / memu	sM_raw / memu
-0.0009	-0.3385975	0.005	-0.3374266	0.005	-0.3374266	0.005
0.0009	0.4700289	0.005	0.468858	0.005	0.468858	0.005
0.0029	1.21939	0.005	1.215615	0.005	1.215615	0.005
0.0049	1.84062	0.005	1.834247	0.005	1.834247	0.005
0.0099	3.0084	0.005	2.995517	0.005	2.995517	0.005
0.0149	3.81353	0.005	3.794141	0.005	3.794141	0.005
0.0199	4.41621	0.005	4.390319	0.005	4.390319	0.005
0.0249	4.89289	0.005	4.8605	0.005	4.8605	0.005
0.0299	5.28271	0.005	5.243815	0.005	5.243815	0.005
0.0349	5.60792	0.005	5.562517	0.005	5.562517	0.005
0.0399	5.88257	0.005	5.830658	0.005	5.830658	0.005
0.0449	6.12092	0.005	6.062505	0.005	6.062505	0.005
0.0499	6.33196	0.005	6.267044	0.005	6.267044	0.005
0.0549	6.51794	0.005	6.44652	0.005	6.44652	0.005
0.0599	6.68378	0.005	6.605852	0.005	6.605852	0.005
0.0649	6.82945	0.005	6.745018	0.005	6.745018	0.005
0.0698	6.96314	0.005	6.872331	0.005	6.872331	0.005
0.0749	7.08427	0.005	6.986821	0.005	6.986821	0.005
0.0799	7.19067	0.005	7.086719	0.005	7.086719	0.005
0.0849	7.29195	0.005	7.181499	0.005	7.181499	0.005
0.0899	7.38755	0.005	7.270587	0.005	7.270587	0.005
0.0949	7.46657	0.005	7.343103	0.005	7.343103	0.005
0.0999	7.54758	0.005	7.41761	0.005	7.41761	0.005
0.1999	8.38123	0.005	8.121156	0.005	8.121156	0.005
0.2999	8.6998	0.005	8.309627	0.005	8.309627	0.005
0.3999	8.88548	0.005	8.365208	0.005	8.365208	0.005
0.4999	9.0162	0.005	8.365829	0.005	8.365829	0.005
0.5999	9.11898	0.005	8.338507	0.005	8.338507	0.005
0.6999	9.2071	0.005	8.296533	0.005	8.296533	0.005
0.8	9.281142	0.005	8.240342	0.005	8.240342	0.005
0.9	9.350941	0.005	8.180041	0.005	8.180041	0.005
1.0	9.406182	0.005	8.105182	0.005	8.105182	0.005
1.2	9.514217	0.005	7.953017	0.005	7.953017	0.005
1.4	9.611594	0.005	7.790194	0.005	7.790194	0.005
1.6	9.69382	0.005	7.61222	0.005	7.605378	0.005
1.8	9.77178	0.005	7.42998	0.005	7.395816	0.005
1.8004	9.76113	0.005	7.41881	0.005	7.384631	0.005
1.6003	9.68237	0.005	7.60038	0.005	7.593514	0.005
1.4003	9.59106	0.005	7.769266	0.005	7.769266	0.005
1.2002	9.4931	0.005	7.931644	0.005	7.931644	0.005
1.0002	9.38185	0.005	8.080588	0.005	8.080588	0.005
0.9001	9.31898	0.005	8.147952	0.005	8.147952	0.005
0.8002	9.24293	0.005	8.201871	0.005	8.201871	0.005
0.7	9.169722	0.005	8.259022	0.005	8.259022	0.005
0.6001	9.07396	0.005	8.293231	0.005	8.293231	0.005
0.5	8.969472	0.005	8.318972	0.005	8.318972	0.005
0.4001	8.83627	0.005	8.31574	0.005	8.31574	0.005
0.3001	8.64806	0.005	8.257628	0.005	8.257628	0.005
0.2001	8.32705	0.005	8.066722	0.005	8.066722	0.005
0.1	7.497094	0.005	7.366994	0.005	7.366994	0.005
0.0949	7.41403	0.005	7.290566	0.005	7.290566	0.005
0.0899	7.32926	0.005	7.212299	0.005	7.212299	0.005
0.0849	7.23408	0.005	7.123621	0.005	7.123621	0.005
0.0799	7.13141	0.005	7.02746	0.005	7.02746	0.005
0.0749	7.02343	0.005	6.925981	0.005	6.925981	0.005
0.0699	6.90018	0.005	6.809243	0.005	6.809243	0.005
0.0649	6.76409	0.005	6.679657	0.005	6.679657	0.005
0.0599	6.61676	0.005	6.538828	0.005	6.538828	0.005
0.0549	6.45137	0.005	6.379941	0.005	6.379941	0.005
0.0499	6.26555	0.005	6.200629	0.005	6.200629	0.005
0.0449	6.05791	0.005	5.999498	0.005	5.999498	0.005
0.0399	5.81791	0.005	5.765999	0.005	5.765999	0.005
0.0349	5.54466	0.005	5.499258	0.005	5.499258	0.005
0.0299	5.21994	0.005	5.181036	0.005	5.181036	0.005
0.0249	4.83552	0.005	4.803129	0.005	4.803129	0.005
0.0199	4.3663	0.005	4.340408	0.005	4.340408	0.005
0.0149	3.76645	0.005	3.747068	0.005	3.747068	0.005
0.0099	2.96398	0.005	2.951105	0.005	2.951105	0.005
0.0049	1.81722	0.005	1.810841	0.005	1.810841	0.005
0.003	1.232826	0.005	1.228923	0.005	1.228923	0.005
0.001	0.5059939	0.005	0.5046929	0.005	0.5046929	0.005
-0.0009	-0.3404244	0.005	-0.3392535	0.005	-0.3392535	0.005
-0.0028	-1.09461	0.005	-1.090972	0.005	-1.090972	0.005
-0.0049	-1.72559	0.005	-1.719216	0.005	-1.719216	0.005
-0.0099	-2.89505	0.005	-2.882171	0.005	-2.882171	0.005
-0.0149	-3.70642	0.005	-3.687035	0.005	-3.687035	0.005
-0.0199	-4.31534	0.005	-4.289452	0.005	-4.289452	0.005
-0.0249	-4.78596	0.005	-4.753566	0.005	-4.753566	0.005
-0.0298	-5.17513	0.005	-5.13636	0.005	-5.13636	0.005
-0.0349	-5.50007	0.005	-5.45467	0.005	-5.45467	0.005
-0.0399	-5.77594	0.005	-5.724029	0.005	-5.724029	0.005
-0.0449	-6.01551	0.005	-5.957092	0.005	-5.957092	0.005
-0.0499	-6.22444	0.005	-6.159522	0.005	-6.159522	0.005
-0.0549	-6.41061	0.005	-6.339185	0.005	-6.339185	0.005
-0.0599	-6.57549	0.005	-6.497557	0.005	-6.497557	0.005
-0.0649	-6.72343	0.005	-6.638995	0.005	-6.638995	0.005
-0.0699	-6.85489	0.005	-6.763955	0.005	-6.763955	0.005
-0.0749	-6.97596	0.005	-6.878515	0.005	-6.878515	0.005
-0.0799	-7.08489	0.005	-6.980942	0.005	-6.980942	0.005
-0.0849	-7.18515	0.005	-7.074691	0.005	-7.074691	0.005
-0.0899	-7.27725	0.005	-7.160289	0.005	-7.160289	0.005
-0.0949	-7.36263	0.005	-7.239165	0.005	-7.239165	0.005
-0.0999	-7.4385	0.005	-7.308531	0.005	-7.308531	0.005
-0.1998	-8.26844	0.005	-8.008505	0.005	-8.008505	0.005
-0.2998	-8.58563	0.005	-8.195593	0.005	-8.195593	0.005
-0.3998	-8.77045	0.005	-8.250309	0.005	-8.250309	0.005
-0.4999	-8.89788	0.005	-8.24751	0.005	-8.24751	0.005
-0.5999	-8.99979	0.005	-8.219321	0.005	-8.219321	0.005
-0.6999	-9.09334	0.005	-8.18277	0.005	-8.18277	0.005
-0.7998	-9.16554	0.005	-8.124998	0.005	-8.124998	0.005
-0.8999	-9.22901	0.005	-8.058243	0.005	-8.058243	0.005
-0.9999	-9.29079	0.005	-7.989919	0.005	-7.989919	0.005
-1.1999	-9.40274	0.005	-7.841666	0.005	-7.841666	0.005
-1.3998	-9.49215	0.005	-7.671008	0.005	-7.671008	0.005
-1.5999	-9.56906	0.005	-7.48759	0.005	-7.480875	0.005
-1.7999	-9.65784	0.005	-7.31617	0.005	-7.282544	0.005
-1.8003	-9.64896	0.005	-7.30677	0.005	-7.273116	0.005
-1.6001	-9.5621	0.005	-7.48037	0.005	-7.473637	0.005
-1.4001	-9.48363	0.005	-7.662096	0.005	-7.662096	0.005
-1.2001	-9.38529	0.005	-7.823958	0.005	-7.823958	0.005
-1.0001	-9.27176	0.005	-7.970631	0.005	-7.970631	0.005
-0.9001	-9.20572	0.005	-8.034692	0.005	-8.034692	0.005
-0.8	-9.139189	0.005	-8.098389	0.005	-8.098389	0.005
-0.7001	-9.06549	0.005	-8.154662	0.005	-8.154662	0.005
-0.6	-8.976439	0.005	-8.195839	0.005	-8.195839	0.005
-0.5	-8.873322	0.005	-8.222822	0.005	-8.222822	0.005
-0.4	-8.741196	0.005	-8.220796	0.005	-8.220796	0.005
-0.3	-8.551755	0.005	-8.161455	0.005	-8.161455	0.005
-0.2	-8.231533	0.005	-7.971333	0.005	-7.971333	0.005
-0.1	-7.408194	0.005	-7.278094	0.005	-7.278094	0.005
-0.0949	-7.32686	0.005	-7.203399	0.005	-7.203399	0.005
-0.09	-7.241754	0.005	-7.124664	0.005	-7.124664	0.005
-0.0849	-7.14963	0.005	-7.039171	0.005	-7.039171	0.005
-0.0799	-7.04688	0.005	-6.942927	0.005	-6.942927	0.005
-0.0749	-6.93792	0.005	-6.840477	0.005	-6.840477	0.005
-0.07	-6.817408	0.005	-6.726338	0.005	-6.726338	0.005
-0.0649	-6.6832	0.005	-6.598767	0.005	-6.598767	0.005
-0.0599	-6.53526	0.005	-6.457329	0.005	-6.457329	0.005
-0.0549	-6.36935	0.005	-6.297926	0.005	-6.297926	0.005
-0.0499	-6.18581	0.005	-6.120886	0.005	-6.120886	0.005
-0.0449	-5.97808	0.005	-5.919662	0.005	-5.919662	0.005
-0.0399	-5.73964	0.005	-5.68773	0.005	-5.68773	0.005
-0.0349	-5.4657	0.005	-5.420291	0.005	-5.420291	0.005
-0.0299	-5.14594	0.005	-5.107043	0.005	-5.107043	0.005
-0.0249	-4.76005	0.005	-4.727653	0.005	-4.727653	0.005
-0.0199	-4.28899	0.005	-4.2631	0.005	-4.2631	0.005
-0.0149	-3.68845	0.005	-3.669061	0.005	-3.669061	0.005
-0.0099	-2.88371	0.005	-2.87083	0.005	-2.87083	0.005
-0.0049	-1.71939	0.005	-1.713017	0.005	-1.713017	0.005
-0.003	-1.125762	0.005	-1.121859	0.005	-1.121859	0.005
-0.001	-0.3888071	0.005	-0.3875061	0.005	-0.3875061	0.005
0.0009	0.446441	0.005	0.4452701	0.005	0.4452701	0.005
0.0029	1.17764	0.005	1.173863	0.005	1.173863	0.005
0.0049	1.78693	0.005	1.780555	0.005	1.780555	0.005
0.0099	2.92184	0.005	2.90896	0.005	2.90896	0.005
0.0149	3.71157	0.005	3.692182	0.005	3.692182	0.005
0.0199	4.30339	0.005	4.277499	0.005	4.277499	0.005
0.0249	4.76554	0.005	4.733149	0.005	4.733149	0.005
0.0299	5.14455	0.005	5.105646	0.005	5.105646	0.005
0.0349	5.46299	0.005	5.417588	0.005	5.417588	0.005
0.0399	5.73632	0.005	5.684415	0.005	5.684415	0.005
0.0449	5.96927	0.005	5.910855	0.005	5.910855	0.005
0.0499	6.17453	0.005	6.109608	0.005	6.109608	0.005
0.0549	6.35626	0.005	6.284833	0.005	6.284833	0.005
0.0599	6.51694	0.005	6.439013	0.005	6.439013	0.005
0.0648	6.66467	0.005	6.580368	0.005	6.580368	0.005
0.0698	6.79892	0.005	6.708115	0.005	6.708115	0.005
0.0749	6.91609	0.005	6.818647	0.005	6.818647	0.005
0.0799	7.02626	0.005	6.922315	0.005	6.922315	0.005
0.0849	7.12274	0.005	7.012282	0.005	7.012282	0.005
0.0899	7.21745	0.005	7.100491	0.005	7.100491	0.005
0.0949	7.29657	0.005	7.173102	0.005	7.173102	0.005
0.0999	7.37752	0.005	7.24755	0.005	7.24755	0.005
0.1999	8.19598	0.005	7.935907	0.005	7.935907	0.005
0.2999	8.50801	0.005	8.117842	0.005	8.117842	0.005
0.3999	8.69089	0.005	8.170625	0.005	8.170625	0.005
0.4999	8.8196	0.005	8.169231	0.005	8.169231	0.005
0.5999	8.92056	0.005	8.140094	0.005	8.140094	0.005
0.6999	9.01183	0.005	8.101259	0.005	8.101259	0.005
0.8	9.08369	0.005	8.04289	0.005	8.04289	0.005
0.8999	9.15162	0.005	7.980855	0.005	7.980855	0.005
1.0	9.214058	0.005	7.913058	0.005	7.913058	0.005
1.2	9.3205	0.005	7.7593	0.005	7.7593	0.005
1.4	9.412479	0.005	7.591079	0.005	7.591079	0.005
1.6	9.49121	0.005	7.40961	0.005	7.402948	0.005
1.8	9.57706	0.005	7.23526	0.005	7.201993	0.005
1.8999	9.61469	0.005	7.14292	0.005	7.089061	0.005