Folder: PhDThesis/data/monolayers/nanoparticles/Ol_CoFe_C/edx/data

Note: README.md
# PhDThesis

Color palette:
- #0EA8DF #MatNat Blau
- #EE292F #Medizin Rot
- #FAAB2D #HumWis Orange
- #76C152 #Wiwi Gruen
- #7F0128 #Rechtswis Bordeaux
- #793394 #Philo Violett

Sample Translation
- Ol-CoFe-C : DD67
- Ac-CoFe-C : AH11
- Ac-CoFe-C-YF : YF45

File: DD67_1.txt
#FORMAT      : EMSA/MAS Spectral Data File
#VERSION     : 1.0
#TITLE       : Spectrum 1
#DATE        : 04-DEC-2018
#TIME        : 10:31
#OWNER       :
#NPOINTS     : 2048.
#NCOLUMNS    : 1.
#XUNITS      : keV
#YUNITS      : counts
#DATATYPE    : XY
#XPERCHAN    : 0.0100000
#OFFSET      : -0.200000
#SIGNALTYPE  : EDS
#CHOFFSET    : 20.0000
#LIVETIME    : 100
#REALTIME    : 115.622
#BEAMKV      : 20.0000
#PROBECUR    : 0.000000
#MAGCAM      : 1390.00
#XTILTSTGE   : 0.0
#AZIMANGLE   : 0.0
#ELEVANGLE   : 35.0
#XPOSITION mm: 0.0000
#YPOSITION mm: 0.0000
#ZPOSITION mm: 0.0000
##OXINSTPT   : 5
##OXINSTSTROB: 49.22
##OXINSTELEMS: 6,8,11,26,27
##OXINSTLABEL: 26, 6.404, Fe
##OXINSTLABEL: 26, 7.058, Fe
##OXINSTLABEL: 26, 0.705, Fe
##OXINSTLABEL: 26, 0.628, Fe
##OXINSTLABEL: 27, 6.930, Co
##OXINSTLABEL: 27, 7.650, Co
##OXINSTLABEL: 27, 0.776, Co
##OXINSTLABEL: 27, 0.694, Co
##OXINSTLABEL: 27, 0.678, Co
##OXINSTLABEL: 8, 0.525, O
##OXINSTLABEL: 6, 0.277, C
##OXINSTLABEL: 11, 1.041, Na
#SPECTRUM    : Spectral Data Starts Here
-0.20000, 0.
-0.13000, 0.
-0.06000, 41.
0.01000, 5623.
0.08000, 155.
0.15000, 135.
0.22000, 137.
0.29000, 354.
0.36000, 62.
0.43000, 117.
0.50000, 2258.
0.57000, 803.
0.64000, 393.
0.71000, 1119.
0.78000, 440.
0.85000, 80.
0.92000, 54.
0.99000, 59.
1.06000, 99.
1.13000, 72.
1.20000, 66.
1.27000, 79.
1.34000, 105.
1.41000, 99.
1.48000, 110.
1.55000, 96.
1.62000, 103.
1.69000, 120.
1.76000, 124.
1.83000, 129.
1.90000, 99.
1.97000, 110.
2.04000, 111.
2.11000, 121.
2.18000, 106.
2.25000, 114.
2.32000, 111.
2.39000, 117.
2.46000, 113.
2.53000, 106.
2.60000, 106.
2.67000, 95.
2.74000, 98.
2.81000, 117.
2.88000, 107.
2.95000, 96.
3.02000, 99.
3.09000, 103.
3.16000, 85.
3.23000, 91.
3.30000, 85.
3.37000, 89.
3.44000, 92.
3.51000, 77.
3.58000, 74.
3.65000, 78.
3.72000, 72.
3.79000, 77.
3.86000, 94.
3.93000, 75.
4.00000, 70.
4.07000, 81.
4.14000, 60.
4.21000, 66.
4.28000, 73.
4.35000, 64.
4.42000, 61.
4.49000, 63.
4.56000, 55.
4.63000, 70.
4.70000, 59.
4.77000, 63.
4.84000, 65.
4.91000, 56.
4.98000, 41.
5.05000, 59.
5.12000, 50.
5.19000, 55.
5.26000, 55.
5.33000, 57.
5.40000, 56.
5.47000, 53.
5.54000, 48.
5.61000, 49.
5.68000, 38.
5.75000, 49.
5.82000, 45.
5.89000, 37.
5.96000, 33.
6.03000, 50.
6.10000, 51.
6.17000, 48.
6.24000, 90.
6.31000, 633.
6.38000, 1914.
6.45000, 1406.
6.52000, 274.
6.59000, 66.
6.66000, 39.
6.73000, 33.
6.80000, 101.
6.87000, 428.
6.94000, 686.
7.01000, 434.
7.08000, 280.
7.15000, 102.
7.22000, 28.
7.29000, 32.
7.36000, 37.
7.43000, 29.
7.50000, 26.
7.57000, 67.
7.64000, 85.
7.71000, 59.
7.78000, 31.
7.85000, 23.
7.92000, 20.
7.99000, 21.
8.06000, 23.
8.13000, 21.
8.20000, 23.
8.27000, 26.
8.34000, 23.
8.41000, 20.
8.48000, 24.
8.55000, 26.
8.62000, 22.
8.69000, 20.
8.76000, 27.
8.83000, 14.
8.90000, 18.
8.97000, 22.
9.04000, 22.
9.11000, 19.
9.18000, 20.
9.25000, 19.
9.32000, 18.
9.39000, 16.
9.46000, 18.
9.53000, 21.
9.60000, 18.
9.67000, 11.
9.74000, 17.
9.81000, 20.
9.88000, 16.
9.95000, 18.
10.02000, 21.
10.09000, 15.
10.16000, 12.
10.23000, 15.
10.30000, 14.
10.37000, 17.
10.44000, 15.
10.51000, 15.
10.58000, 12.
10.65000, 11.
10.72000, 10.
10.79000, 12.
10.86000, 14.
10.93000, 11.
11.00000, 12.
11.07000, 10.
11.14000, 10.
11.21000, 16.
11.28000, 9.
11.35000, 14.
11.42000, 17.
11.49000, 9.
11.56000, 10.
11.63000, 14.
11.70000, 12.
11.77000, 8.
11.84000, 11.
11.91000, 10.
11.98000, 12.
12.05000, 10.
12.12000, 7.
12.19000, 10.
12.26000, 9.
12.33000, 10.
12.40000, 14.
12.47000, 11.
12.54000, 8.
12.61000, 11.
12.68000, 12.
12.75000, 13.
12.82000, 6.
12.89000, 5.
12.96000, 8.
13.03000, 11.
13.10000, 9.
13.17000, 7.
13.24000, 10.
13.31000, 9.
13.38000, 9.
13.45000, 7.
13.52000, 9.
13.59000, 6.
13.66000, 8.
13.73000, 4.
13.80000, 6.
13.87000, 4.
13.94000, 6.
14.01000, 3.
14.08000, 5.
14.15000, 7.
14.22000, 5.
14.29000, 5.
14.36000, 8.
14.43000, 6.
14.50000, 10.
14.57000, 7.
14.64000, 5.
14.71000, 3.
14.78000, 6.
14.85000, 6.
14.92000, 3.
14.99000, 4.
15.06000, 7.
15.13000, 5.
15.20000, 3.
15.27000, 3.
15.34000, 6.
15.41000, 8.
15.48000, 4.
15.55000, 3.
15.62000, 4.
15.69000, 2.
15.76000, 2.
15.83000, 4.
15.90000, 5.
15.97000, 2.
16.04000, 5.
16.11000, 3.
16.18000, 2.
16.25000, 4.
16.32000, 3.
16.39000, 6.
16.46000, 0.
16.53000, 4.
16.60000, 1.
16.67000, 0.
16.74000, 0.
16.81000, 3.
16.88000, 4.
16.95000, 2.
17.02000, 0.
17.09000, 1.
17.16000, 3.
17.23000, 2.
17.30000, 4.
17.37000, 1.
17.44000, 3.
17.51000, 0.
17.58000, 0.
17.65000, 1.
17.72000, 0.
17.79000, 1.
17.86000, 1.
17.93000, 1.
18.00000, 0.
18.07000, 2.
18.14000, 2.
18.21000, 0.
18.28000, 1.
18.35000, 0.
18.42000, 2.
18.49000, 0.
18.56000, 0.
18.63000, 1.
18.70000, 0.
18.77000, 0.
18.84000, 0.
18.91000, 1.
18.98000, 0.
19.05000, 0.
19.12000, 0.
19.19000, 0.
19.26000, 0.
19.33000, 0.
19.40000, 0.
19.47000, 0.
19.54000, 0.
19.61000, 0.
19.68000, 0.
19.75000, 0.
19.82000, 0.
19.89000, 0.
19.96000, 0.
20.03000, 0.
20.10000, 0.
20.17000, 0.
20.24000, 0.
20.27000, 0.
#ENDOFDATA   :

File: DD67_2.txt
#FORMAT      : EMSA/MAS Spectral Data File
#VERSION     : 1.0
#TITLE       : Spectrum 1
#DATE        : 04-DEC-2018
#TIME        : 10:34
#OWNER       :
#NPOINTS     : 2048.
#NCOLUMNS    : 1.
#XUNITS      : keV
#YUNITS      : counts
#DATATYPE    : XY
#XPERCHAN    : 0.0100000
#OFFSET      : -0.200000
#SIGNALTYPE  : EDS
#CHOFFSET    : 20.0000
#LIVETIME    : 100
#REALTIME    : 114.975
#BEAMKV      : 20.0000
#PROBECUR    : 0.000000
#MAGCAM      : 1390.00
#XTILTSTGE   : 0.0
#AZIMANGLE   : 0.0
#ELEVANGLE   : 35.0
#XPOSITION mm: 0.0000
#YPOSITION mm: 0.0000
#ZPOSITION mm: 0.0000
##OXINSTPT   : 5
##OXINSTSTROB: 49.33
##OXINSTELEMS: 5,6,8,11,14,26,27
##OXINSTLABEL: 26, 6.404, Fe
##OXINSTLABEL: 26, 7.058, Fe
##OXINSTLABEL: 26, 0.705, Fe
##OXINSTLABEL: 26, 0.628, Fe
##OXINSTLABEL: 8, 0.525, O
##OXINSTLABEL: 27, 6.930, Co
##OXINSTLABEL: 27, 7.650, Co
##OXINSTLABEL: 27, 0.776, Co
##OXINSTLABEL: 27, 0.694, Co
##OXINSTLABEL: 27, 0.678, Co
##OXINSTLABEL: 11, 1.041, Na
##OXINSTLABEL: 6, 0.277, C
##OXINSTLABEL: 14, 1.740, Si
##OXINSTLABEL: 5, 0.183, B
#SPECTRUM    : Spectral Data Starts Here
-0.20000, 0.
-0.13000, 2.
-0.06000, 49.
0.01000, 5687.
0.08000, 188.
0.15000, 128.
0.22000, 109.
0.29000, 294.
0.36000, 80.
0.43000, 93.
0.50000, 1762.
0.57000, 602.
0.64000, 311.
0.71000, 853.
0.78000, 353.
0.85000, 69.
0.92000, 26.
0.99000, 55.
1.06000, 89.
1.13000, 56.
1.20000, 67.
1.27000, 65.
1.34000, 68.
1.41000, 68.
1.48000, 78.
1.55000, 85.
1.62000, 97.
1.69000, 100.
1.76000, 128.
1.83000, 104.
1.90000, 97.
1.97000, 93.
2.04000, 94.
2.11000, 94.
2.18000, 105.
2.25000, 86.
2.32000, 97.
2.39000, 105.
2.46000, 92.
2.53000, 109.
2.60000, 93.
2.67000, 105.
2.74000, 106.
2.81000, 100.
2.88000, 100.
2.95000, 86.
3.02000, 98.
3.09000, 87.
3.16000, 80.
3.23000, 87.
3.30000, 97.
3.37000, 82.
3.44000, 97.
3.51000, 72.
3.58000, 78.
3.65000, 84.
3.72000, 85.
3.79000, 81.
3.86000, 68.
3.93000, 74.
4.00000, 82.
4.07000, 67.
4.14000, 66.
4.21000, 66.
4.28000, 58.
4.35000, 66.
4.42000, 66.
4.49000, 70.
4.56000, 63.
4.63000, 81.
4.70000, 71.
4.77000, 65.
4.84000, 57.
4.91000, 59.
4.98000, 58.
5.05000, 53.
5.12000, 60.
5.19000, 56.
5.26000, 62.
5.33000, 54.
5.40000, 51.
5.47000, 40.
5.54000, 54.
5.61000, 54.
5.68000, 56.
5.75000, 43.
5.82000, 41.
5.89000, 53.
5.96000, 43.
6.03000, 47.
6.10000, 42.
6.17000, 42.
6.24000, 105.
6.31000, 658.
6.38000, 2020.
6.45000, 1481.
6.52000, 303.
6.59000, 60.
6.66000, 37.
6.73000, 45.
6.80000, 101.
6.87000, 438.
6.94000, 772.
7.01000, 523.
7.08000, 327.
7.15000, 115.
7.22000, 36.
7.29000, 32.
7.36000, 32.
7.43000, 33.
7.50000, 34.
7.57000, 61.
7.64000, 106.
7.71000, 87.
7.78000, 29.
7.85000, 23.
7.92000, 21.
7.99000, 23.
8.06000, 20.
8.13000, 19.
8.20000, 20.
8.27000, 23.
8.34000, 23.
8.41000, 28.
8.48000, 27.
8.55000, 19.
8.62000, 29.
8.69000, 23.
8.76000, 18.
8.83000, 28.
8.90000, 19.
8.97000, 17.
9.04000, 23.
9.11000, 24.
9.18000, 20.
9.25000, 20.
9.32000, 23.
9.39000, 19.
9.46000, 19.
9.53000, 17.
9.60000, 18.
9.67000, 21.
9.74000, 23.
9.81000, 17.
9.88000, 10.
9.95000, 17.
10.02000, 17.
10.09000, 16.
10.16000, 16.
10.23000, 15.
10.30000, 24.
10.37000, 14.
10.44000, 19.
10.51000, 15.
10.58000, 15.
10.65000, 14.
10.72000, 19.
10.79000, 12.
10.86000, 17.
10.93000, 13.
11.00000, 12.
11.07000, 21.
11.14000, 10.
11.21000, 22.
11.28000, 12.
11.35000, 9.
11.42000, 10.
11.49000, 15.
11.56000, 11.
11.63000, 14.
11.70000, 14.
11.77000, 14.
11.84000, 9.
11.91000, 16.
11.98000, 10.
12.05000, 11.
12.12000, 9.
12.19000, 16.
12.26000, 15.
12.33000, 9.
12.40000, 12.
12.47000, 8.
12.54000, 9.
12.61000, 11.
12.68000, 10.
12.75000, 7.
12.82000, 7.
12.89000, 9.
12.96000, 8.
13.03000, 6.
13.10000, 10.
13.17000, 7.
13.24000, 11.
13.31000, 5.
13.38000, 7.
13.45000, 9.
13.52000, 7.
13.59000, 12.
13.66000, 8.
13.73000, 6.
13.80000, 10.
13.87000, 11.
13.94000, 7.
14.01000, 10.
14.08000, 8.
14.15000, 9.
14.22000, 7.
14.29000, 7.
14.36000, 6.
14.43000, 8.
14.50000, 8.
14.57000, 7.
14.64000, 3.
14.71000, 11.
14.78000, 3.
14.85000, 10.
14.92000, 3.
14.99000, 4.
15.06000, 10.
15.13000, 9.
15.20000, 9.
15.27000, 4.
15.34000, 7.
15.41000, 5.
15.48000, 4.
15.55000, 5.
15.62000, 6.
15.69000, 3.
15.76000, 6.
15.83000, 2.
15.90000, 4.
15.97000, 4.
16.04000, 5.
16.11000, 6.
16.18000, 3.
16.25000, 6.
16.32000, 7.
16.39000, 9.
16.46000, 5.
16.53000, 3.
16.60000, 6.
16.67000, 1.
16.74000, 4.
16.81000, 4.
16.88000, 2.
16.95000, 4.
17.02000, 3.
17.09000, 4.
17.16000, 4.
17.23000, 2.
17.30000, 2.
17.37000, 4.
17.44000, 6.
17.51000, 1.
17.58000, 1.
17.65000, 5.
17.72000, 2.
17.79000, 0.
17.86000, 0.
17.93000, 3.
18.00000, 1.
18.07000, 0.
18.14000, 2.
18.21000, 1.
18.28000, 0.
18.35000, 0.
18.42000, 2.
18.49000, 0.
18.56000, 2.
18.63000, 1.
18.70000, 0.
18.77000, 1.
18.84000, 0.
18.91000, 0.
18.98000, 2.
19.05000, 1.
19.12000, 1.
19.19000, 2.
19.26000, 2.
19.33000, 1.
19.40000, 1.
19.47000, 1.
19.54000, 1.
19.61000, 0.
19.68000, 0.
19.75000, 0.
19.82000, 0.
19.89000, 0.
19.96000, 0.
20.03000, 0.
20.10000, 0.
20.17000, 0.
20.24000, 0.
20.27000, 0.
#ENDOFDATA   :

File: DD67_3.txt
#FORMAT      : EMSA/MAS Spectral Data File
#VERSION     : 1.0
#TITLE       : Spectrum 1
#DATE        : 04-DEC-2018
#TIME        : 10:37
#OWNER       :
#NPOINTS     : 2048.
#NCOLUMNS    : 1.
#XUNITS      : keV
#YUNITS      : counts
#DATATYPE    : XY
#XPERCHAN    : 0.0100000
#OFFSET      : -0.200000
#SIGNALTYPE  : EDS
#CHOFFSET    : 20.0000
#LIVETIME    : 100
#REALTIME    : 116.385
#BEAMKV      : 20.0000
#PROBECUR    : 0.000000
#MAGCAM      : 1390.00
#XTILTSTGE   : 0.0
#AZIMANGLE   : 0.0
#ELEVANGLE   : 35.0
#XPOSITION mm: 0.0000
#YPOSITION mm: 0.0000
#ZPOSITION mm: 0.0000
##OXINSTPT   : 5
##OXINSTSTROB: 49.09
##OXINSTELEMS: 6,8,11,26,27
##OXINSTLABEL: 26, 6.404, Fe
##OXINSTLABEL: 26, 7.058, Fe
##OXINSTLABEL: 26, 0.705, Fe
##OXINSTLABEL: 26, 0.628, Fe
##OXINSTLABEL: 8, 0.525, O
##OXINSTLABEL: 27, 6.930, Co
##OXINSTLABEL: 27, 7.650, Co
##OXINSTLABEL: 27, 0.776, Co
##OXINSTLABEL: 27, 0.694, Co
##OXINSTLABEL: 27, 0.678, Co
##OXINSTLABEL: 6, 0.277, C
##OXINSTLABEL: 11, 1.041, Na
#SPECTRUM    : Spectral Data Starts Here
-0.20000, 0.
-0.13000, 0.
-0.06000, 30.
0.01000, 5493.
0.08000, 138.
0.15000, 49.
0.22000, 118.
0.29000, 378.
0.36000, 55.
0.43000, 145.
0.50000, 2340.
0.57000, 806.
0.64000, 426.
0.71000, 1190.
0.78000, 532.
0.85000, 108.
0.92000, 58.
0.99000, 60.
1.06000, 116.
1.13000, 79.
1.20000, 78.
1.27000, 88.
1.34000, 101.
1.41000, 114.
1.48000, 118.
1.55000, 109.
1.62000, 109.
1.69000, 109.
1.76000, 121.
1.83000, 120.
1.90000, 113.
1.97000, 126.
2.04000, 121.
2.11000, 120.
2.18000, 99.
2.25000, 127.
2.32000, 110.
2.39000, 120.
2.46000, 107.
2.53000, 119.
2.60000, 125.
2.67000, 89.
2.74000, 122.
2.81000, 104.
2.88000, 109.
2.95000, 97.
3.02000, 104.
3.09000, 91.
3.16000, 99.
3.23000, 75.
3.30000, 94.
3.37000, 89.
3.44000, 86.
3.51000, 78.
3.58000, 90.
3.65000, 96.
3.72000, 92.
3.79000, 86.
3.86000, 81.
3.93000, 74.
4.00000, 69.
4.07000, 68.
4.14000, 71.
4.21000, 70.
4.28000, 63.
4.35000, 60.
4.42000, 70.
4.49000, 58.
4.56000, 67.
4.63000, 84.
4.70000, 60.
4.77000, 53.
4.84000, 60.
4.91000, 62.
4.98000, 61.
5.05000, 45.
5.12000, 51.
5.19000, 66.
5.26000, 53.
5.33000, 60.
5.40000, 58.
5.47000, 52.
5.54000, 30.
5.61000, 43.
5.68000, 44.
5.75000, 44.
5.82000, 33.
5.89000, 47.
5.96000, 44.
6.03000, 42.
6.10000, 46.
6.17000, 53.
6.24000, 107.
6.31000, 633.
6.38000, 1946.
6.45000, 1399.
6.52000, 298.
6.59000, 55.
6.66000, 37.
6.73000, 43.
6.80000, 100.
6.87000, 503.
6.94000, 767.
7.01000, 476.
7.08000, 307.
7.15000, 102.
7.22000, 34.
7.29000, 31.
7.36000, 29.
7.43000, 26.
7.50000, 45.
7.57000, 76.
7.64000, 111.
7.71000, 78.
7.78000, 27.
7.85000, 23.
7.92000, 25.
7.99000, 22.
8.06000, 25.
8.13000, 30.
8.20000, 19.
8.27000, 21.
8.34000, 25.
8.41000, 21.
8.48000, 20.
8.55000, 24.
8.62000, 28.
8.69000, 25.
8.76000, 13.
8.83000, 21.
8.90000, 15.
8.97000, 28.
9.04000, 16.
9.11000, 20.
9.18000, 22.
9.25000, 19.
9.32000, 16.
9.39000, 13.
9.46000, 19.
9.53000, 16.
9.60000, 16.
9.67000, 18.
9.74000, 17.
9.81000, 16.
9.88000, 16.
9.95000, 20.
10.02000, 23.
10.09000, 15.
10.16000, 13.
10.23000, 16.
10.30000, 13.
10.37000, 25.
10.44000, 18.
10.51000, 16.
10.58000, 13.
10.65000, 10.
10.72000, 17.
10.79000, 18.
10.86000, 13.
10.93000, 13.
11.00000, 17.
11.07000, 19.
11.14000, 15.
11.21000, 14.
11.28000, 12.
11.35000, 13.
11.42000, 15.
11.49000, 16.
11.56000, 11.
11.63000, 15.
11.70000, 12.
11.77000, 13.
11.84000, 12.
11.91000, 11.
11.98000, 13.
12.05000, 11.
12.12000, 12.
12.19000, 10.
12.26000, 9.
12.33000, 13.
12.40000, 13.
12.47000, 10.
12.54000, 11.
12.61000, 11.
12.68000, 6.
12.75000, 11.
12.82000, 12.
12.89000, 9.
12.96000, 9.
13.03000, 5.
13.10000, 7.
13.17000, 10.
13.24000, 10.
13.31000, 6.
13.38000, 7.
13.45000, 9.
13.52000, 9.
13.59000, 9.
13.66000, 6.
13.73000, 6.
13.80000, 5.
13.87000, 11.
13.94000, 6.
14.01000, 6.
14.08000, 10.
14.15000, 7.
14.22000, 6.
14.29000, 7.
14.36000, 8.
14.43000, 6.
14.50000, 6.
14.57000, 6.
14.64000, 2.
14.71000, 5.
14.78000, 6.
14.85000, 6.
14.92000, 4.
14.99000, 4.
15.06000, 6.
15.13000, 6.
15.20000, 5.
15.27000, 5.
15.34000, 7.
15.41000, 6.
15.48000, 7.
15.55000, 8.
15.62000, 4.
15.69000, 6.
15.76000, 2.
15.83000, 5.
15.90000, 9.
15.97000, 3.
16.04000, 3.
16.11000, 3.
16.18000, 5.
16.25000, 4.
16.32000, 5.
16.39000, 6.
16.46000, 6.
16.53000, 4.
16.60000, 1.
16.67000, 0.
16.74000, 3.
16.81000, 1.
16.88000, 7.
16.95000, 3.
17.02000, 3.
17.09000, 3.
17.16000, 1.
17.23000, 7.
17.30000, 1.
17.37000, 3.
17.44000, 3.
17.51000, 0.
17.58000, 3.
17.65000, 2.
17.72000, 1.
17.79000, 4.
17.86000, 2.
17.93000, 4.
18.00000, 0.
18.07000, 2.
18.14000, 0.
18.21000, 1.
18.28000, 1.
18.35000, 0.
18.42000, 1.
18.49000, 2.
18.56000, 0.
18.63000, 2.
18.70000, 2.
18.77000, 0.
18.84000, 0.
18.91000, 0.
18.98000, 0.
19.05000, 0.
19.12000, 0.
19.19000, 1.
19.26000, 1.
19.33000, 1.
19.40000, 0.
19.47000, 0.
19.54000, 0.
19.61000, 0.
19.68000, 0.
19.75000, 0.
19.82000, 0.
19.89000, 0.
19.96000, 0.
20.03000, 0.
20.10000, 0.
20.17000, 0.
20.24000, 0.
20.27000, 0.
#ENDOFDATA   :

File: DD67_4.txt
#FORMAT      : EMSA/MAS Spectral Data File
#VERSION     : 1.0
#TITLE       : Spectrum 1
#DATE        : 04-DEC-2018
#TIME        : 10:39
#OWNER       :
#NPOINTS     : 2048.
#NCOLUMNS    : 1.
#XUNITS      : keV
#YUNITS      : counts
#DATATYPE    : XY
#XPERCHAN    : 0.0100000
#OFFSET      : -0.200000
#SIGNALTYPE  : EDS
#CHOFFSET    : 20.0000
#LIVETIME    : 100
#REALTIME    : 114.872
#BEAMKV      : 20.0000
#PROBECUR    : 0.000000
#MAGCAM      : 1390.00
#XTILTSTGE   : 0.0
#AZIMANGLE   : 0.0
#ELEVANGLE   : 35.0
#XPOSITION mm: 0.0000
#YPOSITION mm: 0.0000
#ZPOSITION mm: 0.0000
##OXINSTPT   : 5
##OXINSTSTROB: 49.12
##OXINSTELEMS: 6,8,11,26,27
##OXINSTLABEL: 26, 6.404, Fe
##OXINSTLABEL: 26, 7.058, Fe
##OXINSTLABEL: 26, 0.705, Fe
##OXINSTLABEL: 26, 0.628, Fe
##OXINSTLABEL: 8, 0.525, O
##OXINSTLABEL: 27, 6.930, Co
##OXINSTLABEL: 27, 7.650, Co
##OXINSTLABEL: 27, 0.776, Co
##OXINSTLABEL: 27, 0.694, Co
##OXINSTLABEL: 27, 0.678, Co
##OXINSTLABEL: 6, 0.277, C
##OXINSTLABEL: 11, 1.041, Na
#SPECTRUM    : Spectral Data Starts Here
-0.20000, 0.
-0.13000, 0.
-0.06000, 41.
0.01000, 5521.
0.08000, 124.
0.15000, 27.
0.22000, 71.
0.29000, 210.
0.36000, 41.
0.43000, 95.
0.50000, 1771.
0.57000, 593.
0.64000, 285.
0.71000, 874.
0.78000, 348.
0.85000, 75.
0.92000, 39.
0.99000, 44.
1.06000, 72.
1.13000, 53.
1.20000, 61.
1.27000, 79.
1.34000, 76.
1.41000, 75.
1.48000, 88.
1.55000, 98.
1.62000, 95.
1.69000, 109.
1.76000, 113.
1.83000, 116.
1.90000, 96.
1.97000, 99.
2.04000, 107.
2.11000, 110.
2.18000, 115.
2.25000, 105.
2.32000, 110.
2.39000, 98.
2.46000, 107.
2.53000, 112.
2.60000, 106.
2.67000, 97.
2.74000, 97.
2.81000, 92.
2.88000, 94.
2.95000, 102.
3.02000, 95.
3.09000, 97.
3.16000, 92.
3.23000, 94.
3.30000, 83.
3.37000, 87.
3.44000, 91.
3.51000, 89.
3.58000, 85.
3.65000, 82.
3.72000, 81.
3.79000, 83.
3.86000, 75.
3.93000, 81.
4.00000, 73.
4.07000, 67.
4.14000, 74.
4.21000, 67.
4.28000, 76.
4.35000, 62.
4.42000, 67.
4.49000, 64.
4.56000, 65.
4.63000, 81.
4.70000, 71.
4.77000, 62.
4.84000, 62.
4.91000, 58.
4.98000, 65.
5.05000, 50.
5.12000, 51.
5.19000, 52.
5.26000, 58.
5.33000, 62.
5.40000, 45.
5.47000, 45.
5.54000, 60.
5.61000, 56.
5.68000, 50.
5.75000, 47.
5.82000, 44.
5.89000, 49.
5.96000, 45.
6.03000, 34.
6.10000, 48.
6.17000, 46.
6.24000, 78.
6.31000, 673.
6.38000, 1941.
6.45000, 1487.
6.52000, 258.
6.59000, 43.
6.66000, 32.
6.73000, 50.
6.80000, 119.
6.87000, 439.
6.94000, 729.
7.01000, 482.
7.08000, 303.
7.15000, 116.
7.22000, 39.
7.29000, 25.
7.36000, 27.
7.43000, 22.
7.50000, 36.
7.57000, 58.
7.64000, 104.
7.71000, 76.
7.78000, 40.
7.85000, 21.
7.92000, 23.
7.99000, 24.
8.06000, 28.
8.13000, 20.
8.20000, 30.
8.27000, 16.
8.34000, 19.
8.41000, 27.
8.48000, 24.
8.55000, 30.
8.62000, 33.
8.69000, 16.
8.76000, 21.
8.83000, 23.
8.90000, 21.
8.97000, 21.
9.04000, 12.
9.11000, 20.
9.18000, 27.
9.25000, 21.
9.32000, 22.
9.39000, 17.
9.46000, 16.
9.53000, 17.
9.60000, 16.
9.67000, 14.
9.74000, 22.
9.81000, 19.
9.88000, 12.
9.95000, 15.
10.02000, 16.
10.09000, 9.
10.16000, 15.
10.23000, 20.
10.30000, 16.
10.37000, 14.
10.44000, 19.
10.51000, 14.
10.58000, 18.
10.65000, 21.
10.72000, 15.
10.79000, 11.
10.86000, 17.
10.93000, 14.
11.00000, 13.
11.07000, 18.
11.14000, 12.
11.21000, 12.
11.28000, 8.
11.35000, 14.
11.42000, 11.
11.49000, 10.
11.56000, 10.
11.63000, 12.
11.70000, 11.
11.77000, 9.
11.84000, 14.
11.91000, 11.
11.98000, 11.
12.05000, 13.
12.12000, 9.
12.19000, 12.
12.26000, 9.
12.33000, 10.
12.40000, 15.
12.47000, 7.
12.54000, 11.
12.61000, 14.
12.68000, 9.
12.75000, 7.
12.82000, 8.
12.89000, 8.
12.96000, 11.
13.03000, 11.
13.10000, 9.
13.17000, 9.
13.24000, 11.
13.31000, 6.
13.38000, 9.
13.45000, 9.
13.52000, 4.
13.59000, 6.
13.66000, 6.
13.73000, 6.
13.80000, 9.
13.87000, 7.
13.94000, 5.
14.01000, 6.
14.08000, 7.
14.15000, 5.
14.22000, 6.
14.29000, 6.
14.36000, 7.
14.43000, 5.
14.50000, 5.
14.57000, 4.
14.64000, 4.
14.71000, 7.
14.78000, 8.
14.85000, 10.
14.92000, 8.
14.99000, 4.
15.06000, 5.
15.13000, 5.
15.20000, 6.
15.27000, 5.
15.34000, 8.
15.41000, 2.
15.48000, 6.
15.55000, 5.
15.62000, 5.
15.69000, 5.
15.76000, 3.
15.83000, 4.
15.90000, 4.
15.97000, 10.
16.04000, 2.
16.11000, 8.
16.18000, 2.
16.25000, 5.
16.32000, 3.
16.39000, 1.
16.46000, 1.
16.53000, 1.
16.60000, 1.
16.67000, 3.
16.74000, 4.
16.81000, 1.
16.88000, 5.
16.95000, 4.
17.02000, 2.
17.09000, 2.
17.16000, 4.
17.23000, 2.
17.30000, 3.
17.37000, 3.
17.44000, 2.
17.51000, 2.
17.58000, 2.
17.65000, 4.
17.72000, 1.
17.79000, 1.
17.86000, 3.
17.93000, 3.
18.00000, 1.
18.07000, 0.
18.14000, 1.
18.21000, 2.
18.28000, 6.
18.35000, 0.
18.42000, 3.
18.49000, 0.
18.56000, 0.
18.63000, 2.
18.70000, 0.
18.77000, 1.
18.84000, 3.
18.91000, 0.
18.98000, 1.
19.05000, 0.
19.12000, 0.
19.19000, 0.
19.26000, 1.
19.33000, 1.
19.40000, 1.
19.47000, 0.
19.54000, 0.
19.61000, 0.
19.68000, 0.
19.75000, 0.
19.82000, 0.
19.89000, 0.
19.96000, 0.
20.03000, 0.
20.10000, 0.
20.17000, 0.
20.24000, 0.
20.27000, 0.
#ENDOFDATA   :

File: DD67_5.txt
#FORMAT      : EMSA/MAS Spectral Data File
#VERSION     : 1.0
#TITLE       : Spectrum 1
#DATE        : 04-DEC-2018
#TIME        : 10:42
#OWNER       :
#NPOINTS     : 2048.
#NCOLUMNS    : 1.
#XUNITS      : keV
#YUNITS      : counts
#DATATYPE    : XY
#XPERCHAN    : 0.0100000
#OFFSET      : -0.200000
#SIGNALTYPE  : EDS
#CHOFFSET    : 20.0000
#LIVETIME    : 100
#REALTIME    : 116.387
#BEAMKV      : 20.0000
#PROBECUR    : 0.000000
#MAGCAM      : 1390.00
#XTILTSTGE   : 0.0
#AZIMANGLE   : 0.0
#ELEVANGLE   : 35.0
#XPOSITION mm: 0.0000
#YPOSITION mm: 0.0000
#ZPOSITION mm: 0.0000
##OXINSTPT   : 5
##OXINSTSTROB: 49.14
##OXINSTELEMS: 6,8,11,26,27
##OXINSTLABEL: 26, 6.404, Fe
##OXINSTLABEL: 26, 7.058, Fe
##OXINSTLABEL: 26, 0.705, Fe
##OXINSTLABEL: 26, 0.628, Fe
##OXINSTLABEL: 27, 6.930, Co
##OXINSTLABEL: 27, 7.650, Co
##OXINSTLABEL: 27, 0.776, Co
##OXINSTLABEL: 27, 0.694, Co
##OXINSTLABEL: 27, 0.678, Co
##OXINSTLABEL: 8, 0.525, O
##OXINSTLABEL: 6, 0.277, C
##OXINSTLABEL: 11, 1.041, Na
#SPECTRUM    : Spectral Data Starts Here
-0.20000, 0.
-0.13000, 0.
-0.06000, 45.
0.01000, 5583.
0.08000, 139.
0.15000, 50.
0.22000, 102.
0.29000, 319.
0.36000, 58.
0.43000, 126.
0.50000, 2101.
0.57000, 752.
0.64000, 375.
0.71000, 1125.
0.78000, 536.
0.85000, 96.
0.92000, 52.
0.99000, 74.
1.06000, 116.
1.13000, 77.
1.20000, 78.
1.27000, 83.
1.34000, 90.
1.41000, 88.
1.48000, 114.
1.55000, 94.
1.62000, 102.
1.69000, 118.
1.76000, 132.
1.83000, 120.
1.90000, 110.
1.97000, 127.
2.04000, 123.
2.11000, 127.
2.18000, 123.
2.25000, 102.
2.32000, 122.
2.39000, 105.
2.46000, 113.
2.53000, 123.
2.60000, 115.
2.67000, 110.
2.74000, 107.
2.81000, 97.
2.88000, 107.
2.95000, 113.
3.02000, 113.
3.09000, 107.
3.16000, 86.
3.23000, 88.
3.30000, 95.
3.37000, 92.
3.44000, 92.
3.51000, 87.
3.58000, 83.
3.65000, 91.
3.72000, 81.
3.79000, 72.
3.86000, 80.
3.93000, 85.
4.00000, 74.
4.07000, 84.
4.14000, 72.
4.21000, 74.
4.28000, 68.
4.35000, 70.
4.42000, 59.
4.49000, 73.
4.56000, 65.
4.63000, 71.
4.70000, 75.
4.77000, 59.
4.84000, 63.
4.91000, 60.
4.98000, 51.
5.05000, 58.
5.12000, 59.
5.19000, 69.
5.26000, 54.
5.33000, 55.
5.40000, 51.
5.47000, 51.
5.54000, 52.
5.61000, 43.
5.68000, 37.
5.75000, 40.
5.82000, 47.
5.89000, 48.
5.96000, 47.
6.03000, 46.
6.10000, 50.
6.17000, 47.
6.24000, 74.
6.31000, 636.
6.38000, 1879.
6.45000, 1557.
6.52000, 297.
6.59000, 49.
6.66000, 42.
6.73000, 41.
6.80000, 130.
6.87000, 652.
6.94000, 870.
7.01000, 568.
7.08000, 311.
7.15000, 111.
7.22000, 36.
7.29000, 30.
7.36000, 35.
7.43000, 40.
7.50000, 38.
7.57000, 97.
7.64000, 126.
7.71000, 83.
7.78000, 35.
7.85000, 17.
7.92000, 34.
7.99000, 27.
8.06000, 32.
8.13000, 35.
8.20000, 23.
8.27000, 21.
8.34000, 26.
8.41000, 22.
8.48000, 17.
8.55000, 21.
8.62000, 23.
8.69000, 19.
8.76000, 17.
8.83000, 15.
8.90000, 19.
8.97000, 21.
9.04000, 20.
9.11000, 21.
9.18000, 17.
9.25000, 12.
9.32000, 19.
9.39000, 23.
9.46000, 17.
9.53000, 19.
9.60000, 13.
9.67000, 17.
9.74000, 22.
9.81000, 17.
9.88000, 18.
9.95000, 14.
10.02000, 22.
10.09000, 15.
10.16000, 22.
10.23000, 22.
10.30000, 11.
10.37000, 12.
10.44000, 13.
10.51000, 19.
10.58000, 18.
10.65000, 16.
10.72000, 15.
10.79000, 24.
10.86000, 13.
10.93000, 15.
11.00000, 15.
11.07000, 12.
11.14000, 9.
11.21000, 8.
11.28000, 18.
11.35000, 11.
11.42000, 13.
11.49000, 15.
11.56000, 13.
11.63000, 11.
11.70000, 14.
11.77000, 17.
11.84000, 21.
11.91000, 8.
11.98000, 9.
12.05000, 12.
12.12000, 11.
12.19000, 18.
12.26000, 9.
12.33000, 11.
12.40000, 10.
12.47000, 14.
12.54000, 6.
12.61000, 12.
12.68000, 8.
12.75000, 5.
12.82000, 8.
12.89000, 10.
12.96000, 14.
13.03000, 8.
13.10000, 8.
13.17000, 5.
13.24000, 12.
13.31000, 8.
13.38000, 7.
13.45000, 9.
13.52000, 8.
13.59000, 7.
13.66000, 9.
13.73000, 10.
13.80000, 11.
13.87000, 7.
13.94000, 9.
14.01000, 8.
14.08000, 9.
14.15000, 9.
14.22000, 12.
14.29000, 5.
14.36000, 7.
14.43000, 11.
14.50000, 5.
14.57000, 4.
14.64000, 8.
14.71000, 5.
14.78000, 7.
14.85000, 4.
14.92000, 4.
14.99000, 6.
15.06000, 6.
15.13000, 5.
15.20000, 5.
15.27000, 6.
15.34000, 8.
15.41000, 1.
15.48000, 5.
15.55000, 6.
15.62000, 3.
15.69000, 4.
15.76000, 6.
15.83000, 3.
15.90000, 6.
15.97000, 3.
16.04000, 7.
16.11000, 1.
16.18000, 2.
16.25000, 4.
16.32000, 4.
16.39000, 1.
16.46000, 3.
16.53000, 3.
16.60000, 4.
16.67000, 2.
16.74000, 5.
16.81000, 4.
16.88000, 4.
16.95000, 1.
17.02000, 5.
17.09000, 3.
17.16000, 5.
17.23000, 1.
17.30000, 0.
17.37000, 3.
17.44000, 1.
17.51000, 0.
17.58000, 3.
17.65000, 1.
17.72000, 3.
17.79000, 0.
17.86000, 2.
17.93000, 4.
18.00000, 1.
18.07000, 1.
18.14000, 1.
18.21000, 1.
18.28000, 0.
18.35000, 2.
18.42000, 2.
18.49000, 0.
18.56000, 2.
18.63000, 2.
18.70000, 0.
18.77000, 0.
18.84000, 3.
18.91000, 0.
18.98000, 2.
19.05000, 0.
19.12000, 4.
19.19000, 1.
19.26000, 1.
19.33000, 0.
19.40000, 1.
19.47000, 0.
19.54000, 0.
19.61000, 0.
19.68000, 0.
19.75000, 0.
19.82000, 0.
19.89000, 0.
19.96000, 0.
20.03000, 0.
20.10000, 0.
20.17000, 0.
20.24000, 0.
20.27000, 0.
#ENDOFDATA   :