Folder: PhDThesis/data/monolayers/nanoparticles/Ac_CoFe_C/vsm

Note: README.md
# PhDThesis

Color palette:
- #0EA8DF #MatNat Blau
- #EE292F #Medizin Rot
- #FAAB2D #HumWis Orange
- #76C152 #Wiwi Gruen
- #7F0128 #Rechtswis Bordeaux
- #793394 #Philo Violett

Sample Translation
- Ol-CoFe-C : DD67
- Ac-CoFe-C : AH11
- Ac-CoFe-C-YF : YF45

File: AH11_10K_LangevinSAXSscaled.xye
#Executed at: 2018-11-09 13:19:57.8772
#Loaded File	 = ./AH11_HYST_100OE_10K.DAT
#Rescale Factor	 = 0.144977
#[[Data]]
#B/T	M/kAm-1	sM/kAm-1	M_raw/memu	sM_raw/memu
1.97909e-05	136.869	5.82531e-05	944.071	0.000401808
0.196725	159.094	4.80002e-05	1097.37	0.000331087
0.402891	182.28	6.12805e-05	1257.3	0.00042269
0.610368	206.377	5.9046e-05	1423.51	0.000407277
0.815957	230.658	6.35922e-05	1590.99	0.000438635
1.02044	256.214	8.24596e-05	1767.27	0.000568776
1.22453	283.745	8.97869e-05	1957.17	0.000619317
1.42872	314.51	9.21965e-05	2169.37	0.000635937
1.62757	348.552	0.000115424	2404.18	0.00079615
1.8345	388.123	0.000108723	2677.13	0.000749933
2.03737	432.572	0.000104916	2983.72	0.000723674
2.23653	478.841	9.59277e-05	3302.87	0.000661674
2.44317	527.209	0.000143111	3636.49	0.000987129
2.64628	573.001	0.000141684	3952.35	0.000977283
2.85149	613.896	0.00015304	4234.43	0.00105561
3.0566	649.174	0.00015229	4477.76	0.00105044
3.26253	679.039	0.000154337	4683.76	0.00106456
3.47339	705.004	0.000185242	4862.85	0.00127773
3.67728	726.782	0.000146658	5013.07	0.00101159
3.89043	745.805	0.000173932	5144.28	0.00119972
4.09159	762.118	0.0001562	5256.81	0.00107741
4.29997	776.814	0.000228679	5358.18	0.00157734
4.50963	789.488	0.000258263	5445.6	0.0017814
4.71077	800.573	0.000231872	5522.06	0.00159936
4.91593	810.798	0.000210549	5592.58	0.00145229
5.12231	820.03	0.000242878	5656.27	0.00167529
5.3447	829.082	0.000227254	5718.7	0.00156751
5.58032	838.183	0.000238818	5781.48	0.00164727
5.80873	845.499	0.000275395	5831.94	0.00189957
6.03582	852.087	0.000308999	5877.38	0.00213136
6.26077	857.416	0.000235495	5914.14	0.00162436
6.48265	862.672	0.00024977	5950.39	0.00172282
6.71205	867.535	0.000235603	5983.93	0.0016251
6.93995	872.467	0.00024265	6017.96	0.00167371
7.16406	876.043	0.00031698	6042.62	0.00218641
7.40264	879.546	0.000276514	6066.78	0.00190729
7.63066	882.087	0.000319119	6084.31	0.00220117
7.85981	884.424	0.000336755	6100.43	0.00232281
8.09596	887.034	0.00031362	6118.43	0.00216323
8.31489	888.748	0.000270818	6130.25	0.001868
8.54428	889.356	0.000323779	6134.45	0.00223331
8.75919	890.884	0.000335345	6144.98	0.00231309
8.97961	892.031	0.000335871	6152.9	0.00231671
8.80008	891.825	0.000344558	6151.48	0.00237663
8.58865	891.856	0.000332524	6151.7	0.00229363
8.37569	890.547	0.000268455	6142.66	0.0018517
8.14527	890.24	0.000336126	6140.54	0.00231847
7.91555	887.741	0.000332098	6123.31	0.00229069
7.67918	885.551	0.000310381	6108.2	0.00214089
7.45795	883.639	0.00030271	6095.01	0.00208798
7.21935	881.489	0.000259564	6080.18	0.00179038
6.99089	878.038	0.000293886	6056.38	0.00202711
6.762	874.941	0.000278038	6035.02	0.0019178
6.53687	871.207	0.00034016	6009.27	0.0023463
6.31049	866.932	0.000248834	5979.77	0.00171636
6.08276	860.968	0.000231371	5938.64	0.00159591
5.85012	855.889	0.000268326	5903.61	0.00185081
5.62369	850.099	0.000299065	5863.67	0.00206284
5.39136	843.888	0.000275043	5820.82	0.00189714
5.16421	836.587	0.000276732	5770.47	0.00190879
4.93356	828.255	0.000258805	5713	0.00178514
4.6927	819.193	0.000223198	5650.49	0.00153954
4.46859	809.949	0.000240938	5586.73	0.0016619
4.24316	799.94	0.000236259	5517.69	0.00162963
4.00751	789.179	0.000181792	5443.47	0.00125393
3.78564	777.838	0.000244159	5365.24	0.00168412
3.56551	766.132	0.00022062	5284.5	0.00152175
3.33616	752.742	0.000184315	5192.13	0.00127134
3.10926	738.302	0.000215541	5092.53	0.00148672
2.87941	723.29	0.000163104	4988.98	0.00112503
2.65873	707.64	0.000185958	4881.04	0.00128267
2.42636	690.807	0.000148384	4764.93	0.0010235
2.20249	673.467	0.000158737	4645.33	0.00109491
1.97538	655.257	0.000144462	4519.72	0.000996447
1.74399	635.069	0.00015981	4380.47	0.00110231
1.51838	614.97	0.000130663	4241.84	0.000901263
1.29425	594.048	0.000126362	4097.52	0.000871597
1.06586	571.719	0.000104379	3943.51	0.000719968
0.835469	548.523	9.44943e-05	3783.51	0.000651786
0.6051	524.331	9.14599e-05	3616.64	0.000630857
0.377667	499.473	8.44796e-05	3445.18	0.000582709
0.15025	472.713	9.07618e-05	3260.6	0.000626041
-0.0810735	444.328	7.36686e-05	3064.81	0.000508138
-0.309781	414.099	7.92383e-05	2856.3	0.000546556
-0.540849	381.794	8.45749e-05	2633.47	0.000583367
-0.766738	346.881	7.5108e-05	2392.66	0.000518067
-0.987985	306.451	8.18451e-05	2113.79	0.000564537
-1.2228	255.284	9.30783e-05	1760.86	0.000642019
-1.44996	193.331	0.000527594	1333.52	0.00363915
-1.66006	119.195	0.000164966	822.165	0.00113788
-1.88922	18.9972	0.000127709	131.036	0.000880889
-2.11883	-99.2656	0.000187665	-684.697	0.00129444
-2.3442	-223.325	0.000208268	-1540.41	0.00143656
-2.56455	-343.75	0.000224349	-2371.06	0.00154747
-2.79571	-453.345	0.000199519	-3127.01	0.0013762
-3.02006	-541.947	0.000223602	-3738.15	0.00154232
-3.25097	-611.572	0.000202425	-4218.4	0.00139625
-3.4745	-666.266	0.000238785	-4595.65	0.00164705
-3.70912	-708.159	0.00018424	-4884.62	0.00127082
-3.93553	-740.367	0.000211792	-5106.77	0.00146086
-4.16314	-766.469	0.000216056	-5286.82	0.00149027
-4.39273	-787.134	0.000249882	-5429.36	0.00172359
-4.60441	-802.622	0.000215664	-5536.19	0.00148757
-4.82828	-816.692	0.000252023	-5633.24	0.00173836
-5.06614	-829.124	0.00023647	-5718.99	0.00163108
-5.2867	-839.105	0.000269145	-5787.84	0.00185646
-5.51412	-848.653	0.000297945	-5853.7	0.00205512
-5.74445	-855.813	0.000267824	-5903.08	0.00184735
-5.97684	-862.418	0.000246518	-5948.64	0.00170039
-6.21144	-869.381	0.000372227	-5996.67	0.00256748
-6.4333	-873.585	0.000256843	-6025.67	0.00177161
-6.65791	-879.093	0.000298958	-6063.66	0.0020621
-6.89181	-883.82	0.000377883	-6096.27	0.0026065
-7.11591	-887.207	0.000423255	-6119.63	0.00291945
-7.34476	-890.544	0.00035393	-6142.64	0.00244128
-7.57384	-893.54	0.000351228	-6163.31	0.00242264
-7.80073	-896.45	0.000419894	-6183.38	0.00289627
-8.03062	-898.358	0.000391796	-6196.54	0.00270246
-8.25647	-900.899	0.000334597	-6214.07	0.00230793
-8.4871	-901.761	0.000347765	-6220.01	0.00239876
-8.69742	-901.943	0.000345284	-6221.27	0.00238164
-8.91901	-903.102	0.000277787	-6229.26	0.00191607
-8.86955	-903.261	0.000384878	-6230.36	0.00265474
-8.66272	-902.905	0.000392034	-6227.9	0.0027041
-8.44635	-901.454	0.000409615	-6217.9	0.00282537
-8.22226	-900.857	0.000331554	-6213.78	0.00228694
-7.99234	-899.024	0.000407394	-6201.14	0.00281005
-7.76501	-896.935	0.000355768	-6186.73	0.00245395
-7.53912	-895.477	0.000362619	-6176.67	0.00250121
-7.312	-892.614	0.000373329	-6156.92	0.00257508
-7.08541	-889.919	0.000340221	-6138.33	0.00234672
-6.85859	-886.291	0.000389033	-6113.31	0.0026834
-6.63219	-882.477	0.000334468	-6087	0.00230703
-6.40663	-877.871	0.000323865	-6055.23	0.0022339
-6.17794	-873.525	0.000315904	-6025.25	0.00217899
-5.94486	-868.557	0.000345405	-5990.98	0.00238248
-5.70821	-862.485	0.000320027	-5949.1	0.00220743
-5.48235	-855.274	0.000267053	-5899.36	0.00184203
-5.24876	-848.341	0.000236044	-5851.54	0.00162814
-5.01695	-840.391	0.000274633	-5796.7	0.00189432
-4.78678	-832.192	0.000258568	-5740.15	0.00178351
-4.55548	-822.313	0.000297446	-5672.01	0.00205167
-4.32055	-812.825	0.000220904	-5606.57	0.00152372
-4.0927	-801.737	0.000324575	-5530.08	0.0022388
-3.86033	-790.163	0.000276471	-5450.25	0.001907
-3.62919	-777.487	0.000216998	-5362.82	0.00149678
-3.40511	-764.909	0.000266085	-5276.06	0.00183536
-3.17403	-751.065	0.000220288	-5180.57	0.00151947
-2.93789	-735.633	0.000177509	-5074.12	0.00122439
-2.70331	-719.619	0.000252708	-4963.66	0.00174309
-2.47015	-703.033	0.000215507	-4849.26	0.00148649
-2.26303	-687.093	0.000156448	-4739.31	0.00107912
-2.05539	-670.146	0.000150507	-4622.42	0.00103814
-1.85027	-653.118	0.000119074	-4504.97	0.000821331
-1.64265	-634.742	0.000145648	-4378.22	0.00100463
-1.43678	-615.915	0.00013033	-4248.35	0.000898968
-1.23058	-596.625	0.000120976	-4115.3	0.000834448
-1.02698	-576.402	0.000101999	-3975.8	0.000703548
-0.813248	-554.545	0.000106805	-3825.04	0.000736703
-0.602639	-532.153	8.84082e-05	-3670.59	0.000609807
-0.39645	-509.551	7.63714e-05	-3514.69	0.000526781
-0.188997	-485.098	7.32072e-05	-3346.02	0.000504956
0.0174766	-460.056	7.38898e-05	-3173.3	0.000509664
0.219893	-432.937	7.1794e-05	-2986.24	0.000495208
0.430571	-403.855	6.76942e-05	-2785.64	0.000466929
0.631291	-373.817	7.45871e-05	-2578.45	0.000514474
0.836433	-339.166	8.06454e-05	-2339.44	0.000556262
1.0424	-298.92	8.44089e-05	-2061.84	0.000582222
1.25276	-249.376	0.000112611	-1720.1	0.000776746
1.46247	-187.322	0.000107236	-1292.08	0.000739674
1.66907	-109.908	0.000125485	-758.106	0.000865549
1.87021	-20.8938	0.000160284	-144.118	0.00110558
2.08414	89.7728	0.00017869	619.219	0.00123253
2.29026	202.755	0.000190262	1398.53	0.00131235
2.49513	314.174	0.000252859	2167.06	0.00174412
2.70359	419.038	0.000222811	2890.37	0.00153687
2.90373	504.136	0.000193214	3477.35	0.00133272
3.10534	574.758	0.000238357	3964.47	0.0016441
3.30848	632.133	0.00021719	4360.22	0.0014981
3.51015	676.454	0.000279729	4665.93	0.00192947
3.71053	711.842	0.00024888	4910.02	0.00171669
3.91489	740.538	0.000263396	5107.96	0.00181681
4.11635	763.926	0.000213733	5269.28	0.00147425
4.32121	782.941	0.000270239	5400.44	0.00186401
4.52588	798.887	0.000259623	5510.42	0.00179078
4.729275	812.286	0.000307358	5602.84	0.00212004
4.93545	824.323	0.000276293	5685.88	0.00190576
5.13907	834.108	0.000312985	5753.37	0.00215885
5.34296	842.797	0.000360907	5813.3	0.0024894
5.54486	850.463	0.000325791	5866.18	0.00224719
5.75022	857.21	0.000322055	5912.72	0.00222141
5.95291	863.827	0.000289781	5958.36	0.0019988
6.15979	868.911	0.000321332	5993.42	0.00221643
6.36526	874.457	0.000325073	6031.68	0.00224223
6.56914	878.832	0.000334167	6061.85	0.00230496
6.77605	882.639	0.000307126	6088.12	0.00211844
6.98419	886.15	0.000333781	6112.34	0.0023023
7.18661	890.023	0.000402511	6139.05	0.00277637
7.3875	892.538	0.000410517	6156.4	0.00283159
7.59946	894.977	0.000320036	6173.22	0.00220749
7.81385	897.156	0.000396162	6188.25	0.00273258
8.017	898.86	0.000353463	6200.01	0.00243806
8.22947	899.72	0.000441305	6205.93	0.00304396
8.43456	901.387	0.000442762	6217.44	0.00305401
8.6318	902.583	0.000457072	6225.68	0.00315271
8.82966	902.642	0.000465607	6226.09	0.00321158
8.99996	903.368	0.00036607	6231.1	0.00252502

File: AH11_LangevinSAXSscaled.xye
#Executed at: 2018-11-09 13:18:15.978
#Loaded File	 = ./AH11_HYST_100OE_300K.DAT
#particle info	 = Superball Model, r = 46.9421 A, p = 2.65743
#fit report	 = [[Fit Statistics]]
#    # fitting method   = leastsq
#    # function evals   = 59
#    # data points      = 882
#    # variables        = 3
#    chi-square         = 4.3142e+09
#    reduced chi-square = 4908101.09
#    Akaike info crit   = 13591.4
#    Bayesian info crit = 13605.8
#[[Variables]]
#    Ms:   1983.21 +/- 8.45653 (0.43%) (init = 1)
#    mu:   22549.1 +/- 256.886 (1.14%) (init = 10000)
#    chi:  20.7399 +/- 12.4459 (60.01%) (init = 0)
#    T:    300 (fixed)
#[[Correlations]] (unreported correlations are < 0.100)
#    C(Ms, chi) = -0.922
#    C(Ms, mu)  = -0.737
#    C(mu, chi) =  0.621
#Ms Should	 = 287.521 kA/m
#Rescale Factor	 = 0.144977
#[[Data]]
#B/T	M/kAm-1	sM/kAm-1	M_raw/memu	sM_raw/memu
0.0124541	108.764	0.00330894	750.215	0.0228239
0.0222853	101.14	0.00236766	697.626	0.0163313
0.0474835	173.115	0.00270346	1194.09	0.0186475
0.0744314	209.56	0.00432121	1445.47	0.0298061
0.102625	231.24	0.00411256	1595.01	0.0283669
0.129522	242.052	0.00528479	1669.59	0.0364525
0.157943	248.729	0.00449208	1715.64	0.0309847
0.186362	260.746	0.0047726	1798.53	0.0329197
0.214506	262.283	0.00426954	1809.13	0.0294497
0.241202	266.817	0.00514672	1840.4	0.0355002
0.270377	268.024	0.0043373	1848.73	0.0299171
0.298286	269.582	0.00469778	1859.48	0.0324035
0.324956	269.215	0.00516694	1856.95	0.0356397
0.352629	270.902	0.00537529	1868.58	0.0370768
0.377547	271.074	0.0049029	1869.77	0.0338184
0.406724	273.419	0.00506721	1885.94	0.0349517
0.433944	276.167	0.00568784	1904.89	0.0392326
0.463388	281.942	0.00584859	1944.73	0.0403414
0.49058	281.444	0.00585215	1941.3	0.040366
0.518734	284.326	0.00514261	1961.17	0.0354718
0.546961	283.035	0.004958	1952.27	0.0341984
0.575911	278.734	0.00690855	1922.6	0.0476526
0.603132	282.435	0.00653519	1948.13	0.0450773
0.633388	283.475	0.00426995	1955.3	0.0294525
0.664102	285.585	0.0053377	1969.86	0.0368175
0.693074	285.661	0.00601846	1970.38	0.0415131
0.722322	284.988	0.00605516	1965.74	0.0417663
0.750798	283.793	0.00505802	1957.5	0.0348884
0.780737	280.45	0.00582169	1934.44	0.0401559
0.809706	284.787	0.00700424	1964.35	0.0483127
0.836976	277.894	0.00613184	1916.81	0.0422951
0.867487	283.49	0.00598802	1955.41	0.0413032
0.895507	289.082	0.0060643	1993.98	0.0418293
0.923256	282.639	0.00528631	1949.54	0.036463
0.955479	288.828	0.0058524	1992.23	0.0403677
0.980743	285.402	0.00521759	1968.6	0.035989
0.991989	284.721	0.00544576	1963.9	0.0375628
0.966006	282.713	0.00475028	1950.05	0.0327657
0.935055	287.029	0.00479235	1979.82	0.0330559
0.908044	288.158	0.00530183	1987.61	0.03657
0.879717	281.778	0.00546755	1943.6	0.0377132
0.850744	282.1	0.00588816	1945.82	0.0406144
0.821013	286.435	0.00415548	1975.72	0.0286629
0.787014	282.149	0.0042913	1946.16	0.0295998
0.760559	285.098	0.00523058	1966.5	0.0360786
0.730829	285.523	0.00710211	1969.43	0.0489877
0.701879	282.156	0.00412924	1946.21	0.028482
0.675354	279.839	0.00579663	1930.22	0.039983
0.644421	281.971	0.00533408	1944.93	0.0367925
0.615166	282.18	0.00511735	1946.37	0.0352976
0.588153	280.093	0.00425876	1931.98	0.0293753
0.560177	279.596	0.00517544	1928.55	0.0356983
0.531988	280.627	0.0061614	1935.66	0.042499
0.503975	275.821	0.00453565	1902.51	0.0312852
0.475492	277.99	0.00484734	1917.47	0.0334351
0.449234	274.599	0.00573381	1894.08	0.0395497
0.41821	273.468	0.00534004	1886.28	0.0368336
0.389744	275.666	0.00508323	1901.44	0.0350622
0.361984	269.364	0.00494279	1857.97	0.0340935
0.33528	274.975	0.00541637	1896.68	0.0373601
0.307244	267.281	0.00483272	1843.6	0.0333343
0.277749	267.138	0.00572814	1842.62	0.0395106
0.248268	263.854	0.00516315	1819.97	0.0356135
0.215555	264.353	0.00565545	1823.41	0.0390092
0.190561	257.709	0.00506214	1777.58	0.0349168
0.162053	250.474	0.00426075	1727.68	0.0293891
0.136014	247.129	0.00490855	1704.6	0.0338573
0.106807	234.377	0.00337584	1616.65	0.0232853
0.079089	214.433	0.00357835	1479.08	0.0246821
0.0515857	182.505	0.00279869	1258.85	0.0193043
0.0243372	105.672	0.0022254	728.885	0.01535
-0.00412121	-19.1658	0.00133836	-132.199	0.00923154
-0.032134	-144.24	0.00243145	-994.914	0.0167713
-0.0618226	-195.5	0.00383274	-1348.49	0.0264368
-0.0892453	-225.828	0.00376089	-1557.68	0.0259413
-0.118633	-240.124	0.00382644	-1656.29	0.0263933
-0.146828	-252.581	0.00413995	-1742.21	0.0285558
-0.174256	-254.863	0.0044463	-1757.95	0.0306689
-0.202892	-259.159	0.00528175	-1787.58	0.0364315
-0.230056	-261.91	0.0039152	-1806.56	0.0270056
-0.257485	-270.217	0.00480699	-1863.86	0.0331568
-0.288181	-267.232	0.00488517	-1843.27	0.0336961
-0.314214	-273.27	0.00473572	-1884.92	0.0326653
-0.343437	-273.414	0.00425811	-1885.91	0.0293708
-0.372247	-274.102	0.00385508	-1890.65	0.0265909
-0.403513	-275.722	0.00504877	-1901.83	0.0348246
-0.42827	-273.814	0.00560821	-1888.67	0.0386833
-0.457806	-274.808	0.00397852	-1895.52	0.0274424
-0.48431	-276.657	0.00535645	-1908.28	0.0369468
-0.518045	-278.338	0.00517395	-1919.87	0.035688
-0.545013	-282.305	0.00551065	-1947.23	0.0380104
-0.572506	-278.923	0.00461934	-1923.91	0.0318625
-0.59901	-278.421	0.00487074	-1920.44	0.0335966
-0.627963	-281.606	0.00528582	-1942.41	0.0364596
-0.656523	-283.822	0.00515318	-1957.7	0.0355448
-0.685734	-281.362	0.0059191	-1940.73	0.0408277
-0.71473	-281.964	0.00525345	-1944.89	0.0362364
-0.745181	-286.828	0.00640677	-1978.44	0.0441915
-0.771951	-282.013	0.00621919	-1945.22	0.0428977
-0.800662	-280.49	0.00566557	-1934.71	0.039079
-0.831665	-282.856	0.00520409	-1951.04	0.0358959
-0.859627	-286.964	0.00589352	-1979.37	0.0406513
-0.889659	-285.216	0.00553106	-1967.31	0.0381512
-0.918923	-281.541	0.00425945	-1941.97	0.0293801
-0.949884	-282.738	0.00602828	-1950.23	0.0415808
-0.978661	-284.096	0.00520195	-1959.59	0.0358811
-0.990193	-282.863	0.00510071	-1951.08	0.0351828
-0.963216	-286.363	0.00478353	-1975.22	0.032995
-0.934994	-284.242	0.00596377	-1960.59	0.0411359
-0.907244	-278.156	0.00513612	-1918.62	0.0354271
-0.877916	-278.661	0.0055609	-1922.1	0.038357
-0.849951	-278.753	0.00459283	-1922.73	0.0316797
-0.821719	-284.322	0.00497848	-1961.15	0.0343397
-0.793443	-281.224	0.00675415	-1939.78	0.0465876
-0.763507	-278.017	0.00419288	-1917.66	0.0289209
-0.736521	-281.711	0.00456904	-1943.14	0.0315155
-0.707275	-280.75	0.00511692	-1936.51	0.0352946
-0.67776	-280.183	0.00445087	-1932.6	0.0307004
-0.646792	-280.659	0.00583475	-1935.88	0.040246
-0.616336	-281.574	0.00636668	-1942.19	0.043915
-0.591297	-277.862	0.00503982	-1916.59	0.0347628
-0.561586	-276.879	0.00538774	-1909.81	0.0371627
-0.533595	-275.882	0.00482941	-1902.93	0.0333115
-0.507119	-280.042	0.00533166	-1931.63	0.0367758
-0.473132	-273.999	0.00603655	-1889.94	0.0416379
-0.447407	-274.147	0.00580188	-1890.96	0.0400192
-0.421115	-275.283	0.00560989	-1898.8	0.038695
-0.389654	-274.205	0.00496885	-1891.36	0.0342733
-0.361368	-271.011	0.00610808	-1869.33	0.0421313
-0.332426	-269.243	0.00590411	-1857.14	0.0407244
-0.305164	-269.701	0.00407149	-1860.3	0.0280836
-0.278171	-269.186	0.00443073	-1856.74	0.0305615
-0.250955	-265.568	0.0051237	-1831.79	0.0353414
-0.223182	-262.245	0.00532547	-1808.87	0.0367331
-0.195958	-256.618	0.00526365	-1770.06	0.0363067
-0.164193	-255.319	0.00417257	-1761.1	0.0287808
-0.136187	-247.125	0.00526186	-1704.58	0.0362943
-0.108707	-232.801	0.00518513	-1605.78	0.0357651
-0.0807211	-213.08	0.00420593	-1469.75	0.029011
-0.052694	-184.948	0.00329764	-1275.7	0.0227459
-0.0264557	-127.839	0.00240268	-881.788	0.0165728
0.00128952	12.3281	0.0013104	85.0349	0.00903869
0.0279759	122.553	0.00211575	845.325	0.0145937
0.0562321	192.111	0.00363542	1325.11	0.0250757
0.083414	217.656	0.0036173	1501.31	0.0249508
0.109052	229.339	0.00413881	1581.9	0.028548
0.136958	247.196	0.00529591	1705.06	0.0365292
0.166628	251.357	0.00466235	1733.77	0.0321592
0.195071	258.094	0.00415044	1780.24	0.0286282
0.221957	262.983	0.00519033	1813.96	0.035801
0.25064	267.353	0.00530975	1844.1	0.0366247
0.279102	265.85	0.00557162	1833.74	0.038431
0.308079	268.422	0.00497399	1851.48	0.0343087
0.336826	268.36	0.00402927	1851.05	0.0277924
0.366368	271.592	0.00424333	1873.34	0.0292689
0.393863	274.445	0.00569033	1893.02	0.0392498
0.420607	276.055	0.0052664	1904.12	0.0363256
0.450436	277.059	0.00607717	1911.05	0.0419181
0.479919	276.013	0.00497097	1903.84	0.0342879
0.509155	274.313	0.00516201	1892.11	0.0356057
0.536922	279.413	0.00578418	1927.29	0.0398972
0.56512	277.6	0.00575143	1914.78	0.0396712
0.594146	281.583	0.0051392	1942.26	0.0354483
0.622632	279.915	0.00474162	1930.75	0.032706
0.648861	281.025	0.00501216	1938.4	0.034572
0.68159	283.133	0.00511278	1952.95	0.035266
0.70756	282.025	0.00548563	1945.31	0.0378378
0.735845	282.429	0.00607999	1948.09	0.0419375
0.764572	279.781	0.00547402	1929.83	0.0377578
0.793237	283.176	0.00674339	1953.25	0.0465134
0.821237	281.886	0.00497686	1944.35	0.0343285
0.852287	285.42	0.00550662	1968.72	0.0379826
0.880999	281.935	0.00487785	1944.68	0.0336456
0.908288	282.583	0.00662776	1949.16	0.0457159
0.9363	279.216	0.00468175	1925.93	0.0322929
0.962515	281.723	0.0054499	1943.22	0.0375914
0.992257	284.706	0.00564754	1963.8	0.0389546
0.997237	284.679	0.00482265	1963.61	0.0332649