Folder: PhDThesis/data/monolayers/nanoparticles/Ac_CoFe_C/xrd

Note: README.md
# PhDThesis

Color palette:
- #0EA8DF #MatNat Blau
- #EE292F #Medizin Rot
- #FAAB2D #HumWis Orange
- #76C152 #Wiwi Gruen
- #7F0128 #Rechtswis Bordeaux
- #793394 #Philo Violett

Sample Translation
- Ol-CoFe-C : DD67
- Ac-CoFe-C : AH11
- Ac-CoFe-C-YF : YF45

File: AH11.dat
 5.013  4654
 5.273  4496
 5.533  4249
 5.793  4348
 6.053  4093
 6.313  3965
 6.573  3854
 6.833  3862
 7.093  3674
 7.353  3478
 7.613  3391
 7.873  3225
 8.133  3147
 8.393  3159
 8.653  2986
 8.913  3012
 9.173  2943
 9.433  2914
 9.693  2773
 9.953  2806
 10.213  2725
 10.473  2702
 10.733  2542
 10.993  2599
 11.253  2545
 11.513  2516
 11.773  2507
 12.033  2491
 12.293  2538
 12.553  2569
 12.813  2540
 13.073  2494
 13.333  2492
 13.593  2546
 13.853  2502
 14.113  2563
 14.373  2543
 14.633  2582
 14.893  2700
 15.153  2679
 15.413  2614
 15.673  2662
 15.933  2556
 16.193  2678
 16.453  2771
 16.713  2816
 16.973  2915
 17.233  2913
 17.493  3050
 17.753  3060
 18.013  3260
 18.273  3558
 18.533  3324
 18.793  3362
 19.053  3339
 19.313  3320
 19.573  3228
 19.833  3385
 20.093  3400
 20.353  3375
 20.613  3424
 20.873  3576
 21.133  3519
 21.393  3531
 21.653  3592
 21.913  3536
 22.173  3608
 22.433  3635
 22.693  3675
 22.953  3689
 23.213  3620
 23.473  3587
 23.733  3552
 23.993  3606
 24.253  3599
 24.513  3655
 24.773  3743
 25.033  3713
 25.293  3660
 25.553  3641
 25.813  3613
 26.073  3635
 26.333  3551
 26.593  3569
 26.853  3592
 27.113  3589
 27.373  3595
 27.633  3520
 27.893  3544
 28.153  3545
 28.413  3483
 28.673  3538
 28.933  3534
 29.193  3552
 29.453  3757
 29.713  3908
 29.973  4176
 30.233  4190
 30.493  3971
 30.753  3663
 31.013  3481
 31.273  3336
 31.533  3287
 31.793  3196
 32.053  3221
 32.313  3217
 32.573  3138
 32.833  3162
 33.093  3073
 33.353  3030
 33.613  3151
 33.873  3068
 34.133  3226
 34.393  3229
 34.653  3530
 34.913  4037
 35.173  4623
 35.433  5003
 35.693  4705
 35.953  4036
 36.213  3390
 36.473  2971
 36.733  2871
 36.993  2845
 37.253  2757
 37.513  2589
 37.773  2416
 38.033  2344
 38.293  2304
 38.553  2368
 38.813  2270
 39.073  2247
 39.333  2198
 39.593  2209
 39.853  2226
 40.113  2153
 40.373  2236
 40.633  2230
 40.893  2229
 41.153  2204
 41.413  2196
 41.673  2299
 41.933  2213
 42.193  2177
 42.453  2355
 42.713  2635
 42.973  2860
 43.233  2836
 43.493  2506
 43.753  2209
 44.013  2079
 44.273  1996
 44.533  2031
 44.793  1965
 45.053  2007
 45.313  2025
 45.573  2026
 45.833  2001
 46.093  1980
 46.353  1880
 46.613  1883
 46.873  1954
 47.133  1954
 47.393  1866
 47.653  1962
 47.913  1874
 48.173  1953
 48.433  1895
 48.693  1843
 48.953  1897
 49.213  1846
 49.473  1864
 49.733  1863
 49.993  1909
 50.253  1814
 50.513  1861
 50.773  1889
 51.033  1874
 51.293  1808
 51.553  1824
 51.813  1804
 52.073  1904
 52.333  1854
 52.593  1866
 52.853  1898
 53.113  1933
 53.373  2016
 53.633  1987
 53.893  1951
 54.153  1965
 54.413  1862
 54.673  1845
 54.933  1847
 55.193  1838
 55.453  1831
 55.713  1920
 55.973  1915
 56.233  1981
 56.493  1992
 56.753  2221
 57.013  2317
 57.273  2213
 57.533  2156
 57.793  1962
 58.053  1908
 58.313  1859
 58.573  1845
 58.833  1906
 59.093  1850
 59.353  1891
 59.613  1901
 59.873  1852
 60.133  1922
 60.393  1829
 60.653  1821
 60.913  1825
 61.173  1945
 61.433  1898
 61.693  1966
 61.953  2235
 62.213  2631
 62.473  2795
 62.733  2860
 62.993  2544
 63.253  2284
 63.513  1952
 63.773  1890
 64.033  1878
 64.293  1844
 64.553  1834
 64.813  1851
 65.073  1892
 65.333  1836
 65.593  1828
 65.853  1745
 66.113  1776
 66.373  1778
 66.633  1749
 66.893  1740
 67.153  1693
 67.413  1683
 67.673  1641
 67.933  1783
 68.193  1708
 68.453  1673
 68.713  1669
 68.973  1630
 69.233  1630
 69.493  1637
 69.753  1627
 70.013  1647
 70.273  1610
 70.533  1645
 70.793  1597
 71.053  1658
 71.313  1627
 71.573  1537
 71.833  1581
 72.093  1484
 72.353  1598
 72.613  1561
 72.873  1683
 73.133  1596
 73.393  1644
 73.653  1656
 73.913  1681
 74.173  1680
 74.433  1709
 74.693  1646
 74.953  1631
 75.213  1601
 75.473  1622
 75.733  1581
 75.993  1606
 76.253  1507
 76.513  1493
 76.773  1469
 77.033  1470
 77.293  1440
 77.553  1430
 77.813  1414
 78.073  1495
 78.333  1492
 78.593  1427
 78.853  1475
 79.113  1491
 79.373  1389
 79.633  1407
 79.867  1399