Folder: PhDThesis/data/monolayers/nanoparticles/Ac_CoFe_C_2/edx/data

Note: README.md
# PhDThesis

Color palette:
- #0EA8DF #MatNat Blau
- #EE292F #Medizin Rot
- #FAAB2D #HumWis Orange
- #76C152 #Wiwi Gruen
- #7F0128 #Rechtswis Bordeaux
- #793394 #Philo Violett

Sample Translation
- Ol-CoFe-C : DD67
- Ac-CoFe-C : AH11
- Ac-CoFe-C-YF : YF45

File: DD130_9_YF45_1.txt
#FORMAT      : EMSA/MAS Spectral Data File
#VERSION     : 1.0
#TITLE       : Spectrum 2
#DATE        : 04-DEC-2018
#TIME        : 11:00
#OWNER       :
#NPOINTS     : 2048.
#NCOLUMNS    : 1.
#XUNITS      : keV
#YUNITS      : counts
#DATATYPE    : XY
#XPERCHAN    : 0.0100000
#OFFSET      : -0.200000
#SIGNALTYPE  : EDS
#CHOFFSET    : 20.0000
#LIVETIME    : 100
#REALTIME    : 124.31
#BEAMKV      : 20.0000
#PROBECUR    : 0.000000
#MAGCAM      : 1891.00
#XTILTSTGE   : 0.0
#AZIMANGLE   : 0.0
#ELEVANGLE   : 35.0
#XPOSITION mm: 0.0000
#YPOSITION mm: 0.0000
#ZPOSITION mm: 0.0000
##OXINSTPT   : 5
##OXINSTSTROB: 49.18
##OXINSTELEMS: 6,8,11,14,26,27
##OXINSTLABEL: 14, 1.740, Si
##OXINSTLABEL: 8, 0.525, O
##OXINSTLABEL: 26, 6.404, Fe
##OXINSTLABEL: 26, 7.058, Fe
##OXINSTLABEL: 26, 0.705, Fe
##OXINSTLABEL: 26, 0.628, Fe
##OXINSTLABEL: 27, 6.930, Co
##OXINSTLABEL: 27, 7.650, Co
##OXINSTLABEL: 27, 0.776, Co
##OXINSTLABEL: 27, 0.694, Co
##OXINSTLABEL: 27, 0.678, Co
##OXINSTLABEL: 6, 0.277, C
##OXINSTLABEL: 11, 1.041, Na
#SPECTRUM    : Spectral Data Starts Here
-0.20000, 0.
-0.13000, 2.
-0.06000, 36.
0.01000, 5471.
0.08000, 182.
0.15000, 48.
0.22000, 82.
0.29000, 186.
0.36000, 165.
0.43000, 147.
0.50000, 627.
0.57000, 256.
0.64000, 158.
0.71000, 422.
0.78000, 237.
0.85000, 93.
0.92000, 80.
0.99000, 97.
1.06000, 124.
1.13000, 108.
1.20000, 107.
1.27000, 139.
1.34000, 136.
1.41000, 138.
1.48000, 192.
1.55000, 198.
1.62000, 245.
1.69000, 6009.
1.76000, 15859.
1.83000, 1641.
1.90000, 224.
1.97000, 46.
2.04000, 58.
2.11000, 51.
2.18000, 45.
2.25000, 56.
2.32000, 51.
2.39000, 51.
2.46000, 54.
2.53000, 48.
2.60000, 51.
2.67000, 56.
2.74000, 49.
2.81000, 50.
2.88000, 54.
2.95000, 50.
3.02000, 47.
3.09000, 53.
3.16000, 45.
3.23000, 41.
3.30000, 40.
3.37000, 39.
3.44000, 60.
3.51000, 43.
3.58000, 53.
3.65000, 55.
3.72000, 50.
3.79000, 52.
3.86000, 42.
3.93000, 38.
4.00000, 42.
4.07000, 46.
4.14000, 37.
4.21000, 45.
4.28000, 30.
4.35000, 42.
4.42000, 42.
4.49000, 42.
4.56000, 40.
4.63000, 31.
4.70000, 35.
4.77000, 36.
4.84000, 38.
4.91000, 34.
4.98000, 25.
5.05000, 28.
5.12000, 40.
5.19000, 32.
5.26000, 27.
5.33000, 27.
5.40000, 26.
5.47000, 26.
5.54000, 36.
5.61000, 24.
5.68000, 24.
5.75000, 29.
5.82000, 31.
5.89000, 33.
5.96000, 22.
6.03000, 22.
6.10000, 34.
6.17000, 36.
6.24000, 29.
6.31000, 132.
6.38000, 387.
6.45000, 291.
6.52000, 68.
6.59000, 28.
6.66000, 25.
6.73000, 32.
6.80000, 36.
6.87000, 101.
6.94000, 136.
7.01000, 124.
7.08000, 79.
7.15000, 35.
7.22000, 25.
7.29000, 18.
7.36000, 13.
7.43000, 22.
7.50000, 20.
7.57000, 28.
7.64000, 36.
7.71000, 28.
7.78000, 18.
7.85000, 16.
7.92000, 19.
7.99000, 13.
8.06000, 16.
8.13000, 11.
8.20000, 12.
8.27000, 22.
8.34000, 13.
8.41000, 19.
8.48000, 12.
8.55000, 13.
8.62000, 17.
8.69000, 13.
8.76000, 17.
8.83000, 16.
8.90000, 13.
8.97000, 14.
9.04000, 12.
9.11000, 17.
9.18000, 11.
9.25000, 17.
9.32000, 12.
9.39000, 15.
9.46000, 9.
9.53000, 16.
9.60000, 12.
9.67000, 14.
9.74000, 15.
9.81000, 14.
9.88000, 13.
9.95000, 10.
10.02000, 10.
10.09000, 10.
10.16000, 9.
10.23000, 11.
10.30000, 14.
10.37000, 15.
10.44000, 9.
10.51000, 7.
10.58000, 10.
10.65000, 9.
10.72000, 8.
10.79000, 8.
10.86000, 8.
10.93000, 6.
11.00000, 8.
11.07000, 10.
11.14000, 9.
11.21000, 5.
11.28000, 7.
11.35000, 11.
11.42000, 10.
11.49000, 8.
11.56000, 9.
11.63000, 8.
11.70000, 7.
11.77000, 8.
11.84000, 9.
11.91000, 6.
11.98000, 10.
12.05000, 5.
12.12000, 9.
12.19000, 8.
12.26000, 7.
12.33000, 4.
12.40000, 8.
12.47000, 7.
12.54000, 8.
12.61000, 5.
12.68000, 9.
12.75000, 5.
12.82000, 9.
12.89000, 8.
12.96000, 6.
13.03000, 7.
13.10000, 5.
13.17000, 7.
13.24000, 5.
13.31000, 5.
13.38000, 6.
13.45000, 8.
13.52000, 4.
13.59000, 6.
13.66000, 7.
13.73000, 3.
13.80000, 4.
13.87000, 6.
13.94000, 4.
14.01000, 7.
14.08000, 5.
14.15000, 3.
14.22000, 5.
14.29000, 4.
14.36000, 10.
14.43000, 5.
14.50000, 5.
14.57000, 4.
14.64000, 6.
14.71000, 2.
14.78000, 4.
14.85000, 3.
14.92000, 3.
14.99000, 3.
15.06000, 4.
15.13000, 4.
15.20000, 3.
15.27000, 3.
15.34000, 2.
15.41000, 4.
15.48000, 7.
15.55000, 3.
15.62000, 3.
15.69000, 4.
15.76000, 3.
15.83000, 6.
15.90000, 1.
15.97000, 3.
16.04000, 3.
16.11000, 3.
16.18000, 3.
16.25000, 2.
16.32000, 2.
16.39000, 3.
16.46000, 5.
16.53000, 4.
16.60000, 5.
16.67000, 1.
16.74000, 2.
16.81000, 4.
16.88000, 0.
16.95000, 3.
17.02000, 3.
17.09000, 1.
17.16000, 0.
17.23000, 1.
17.30000, 1.
17.37000, 2.
17.44000, 2.
17.51000, 0.
17.58000, 2.
17.65000, 2.
17.72000, 1.
17.79000, 2.
17.86000, 2.
17.93000, 1.
18.00000, 2.
18.07000, 0.
18.14000, 1.
18.21000, 2.
18.28000, 2.
18.35000, 3.
18.42000, 1.
18.49000, 1.
18.56000, 1.
18.63000, 0.
18.70000, 2.
18.77000, 0.
18.84000, 1.
18.91000, 0.
18.98000, 1.
19.05000, 2.
19.12000, 0.
19.19000, 0.
19.26000, 1.
19.33000, 0.
19.40000, 0.
19.47000, 1.
19.54000, 0.
19.61000, 0.
19.68000, 0.
19.75000, 0.
19.82000, 0.
19.89000, 0.
19.96000, 0.
20.03000, 0.
20.10000, 0.
20.17000, 0.
20.24000, 0.
20.27000, 0.
#ENDOFDATA   :

File: DD130_9_YF45_2.txt
#FORMAT      : EMSA/MAS Spectral Data File
#VERSION     : 1.0
#TITLE       : Spectrum 1
#DATE        : 04-DEC-2018
#TIME        : 11:02
#OWNER       :
#NPOINTS     : 2048.
#NCOLUMNS    : 1.
#XUNITS      : keV
#YUNITS      : counts
#DATATYPE    : XY
#XPERCHAN    : 0.0100000
#OFFSET      : -0.200000
#SIGNALTYPE  : EDS
#CHOFFSET    : 20.0000
#LIVETIME    : 100
#REALTIME    : 112.944
#BEAMKV      : 20.0000
#PROBECUR    : 0.000000
#MAGCAM      : 1390.00
#XTILTSTGE   : 0.0
#AZIMANGLE   : 0.0
#ELEVANGLE   : 35.0
#XPOSITION mm: 0.0000
#YPOSITION mm: 0.0000
#ZPOSITION mm: 0.0000
##OXINSTPT   : 5
##OXINSTSTROB: 49.17
##OXINSTELEMS: 5,6,8,11,26,27
##OXINSTLABEL: 26, 6.404, Fe
##OXINSTLABEL: 26, 7.058, Fe
##OXINSTLABEL: 26, 0.705, Fe
##OXINSTLABEL: 26, 0.628, Fe
##OXINSTLABEL: 8, 0.525, O
##OXINSTLABEL: 11, 1.041, Na
##OXINSTLABEL: 27, 6.930, Co
##OXINSTLABEL: 27, 7.650, Co
##OXINSTLABEL: 27, 0.776, Co
##OXINSTLABEL: 27, 0.694, Co
##OXINSTLABEL: 27, 0.678, Co
##OXINSTLABEL: 6, 0.277, C
##OXINSTLABEL: 5, 0.183, B
#SPECTRUM    : Spectral Data Starts Here
-0.20000, 0.
-0.13000, 2.
-0.06000, 47.
0.01000, 5486.
0.08000, 149.
0.15000, 149.
0.22000, 80.
0.29000, 208.
0.36000, 58.
0.43000, 90.
0.50000, 1593.
0.57000, 536.
0.64000, 271.
0.71000, 722.
0.78000, 326.
0.85000, 64.
0.92000, 35.
0.99000, 60.
1.06000, 109.
1.13000, 42.
1.20000, 62.
1.27000, 68.
1.34000, 61.
1.41000, 70.
1.48000, 74.
1.55000, 77.
1.62000, 76.
1.69000, 85.
1.76000, 100.
1.83000, 87.
1.90000, 75.
1.97000, 79.
2.04000, 92.
2.11000, 91.
2.18000, 85.
2.25000, 100.
2.32000, 103.
2.39000, 88.
2.46000, 89.
2.53000, 76.
2.60000, 112.
2.67000, 95.
2.74000, 76.
2.81000, 84.
2.88000, 72.
2.95000, 78.
3.02000, 70.
3.09000, 82.
3.16000, 74.
3.23000, 65.
3.30000, 76.
3.37000, 60.
3.44000, 73.
3.51000, 67.
3.58000, 67.
3.65000, 70.
3.72000, 64.
3.79000, 67.
3.86000, 54.
3.93000, 64.
4.00000, 64.
4.07000, 48.
4.14000, 65.
4.21000, 52.
4.28000, 44.
4.35000, 51.
4.42000, 59.
4.49000, 53.
4.56000, 44.
4.63000, 50.
4.70000, 49.
4.77000, 51.
4.84000, 42.
4.91000, 46.
4.98000, 41.
5.05000, 39.
5.12000, 42.
5.19000, 36.
5.26000, 40.
5.33000, 41.
5.40000, 44.
5.47000, 37.
5.54000, 35.
5.61000, 32.
5.68000, 34.
5.75000, 29.
5.82000, 31.
5.89000, 43.
5.96000, 30.
6.03000, 40.
6.10000, 32.
6.17000, 40.
6.24000, 78.
6.31000, 581.
6.38000, 1625.
6.45000, 1193.
6.52000, 232.
6.59000, 36.
6.66000, 26.
6.73000, 32.
6.80000, 82.
6.87000, 394.
6.94000, 591.
7.01000, 385.
7.08000, 220.
7.15000, 77.
7.22000, 33.
7.29000, 19.
7.36000, 24.
7.43000, 27.
7.50000, 37.
7.57000, 61.
7.64000, 71.
7.71000, 65.
7.78000, 28.
7.85000, 21.
7.92000, 21.
7.99000, 17.
8.06000, 22.
8.13000, 13.
8.20000, 20.
8.27000, 23.
8.34000, 15.
8.41000, 19.
8.48000, 21.
8.55000, 15.
8.62000, 21.
8.69000, 18.
8.76000, 19.
8.83000, 10.
8.90000, 17.
8.97000, 20.
9.04000, 19.
9.11000, 17.
9.18000, 11.
9.25000, 15.
9.32000, 17.
9.39000, 11.
9.46000, 14.
9.53000, 20.
9.60000, 14.
9.67000, 13.
9.74000, 9.
9.81000, 18.
9.88000, 10.
9.95000, 14.
10.02000, 11.
10.09000, 19.
10.16000, 14.
10.23000, 9.
10.30000, 12.
10.37000, 15.
10.44000, 12.
10.51000, 13.
10.58000, 12.
10.65000, 10.
10.72000, 13.
10.79000, 11.
10.86000, 6.
10.93000, 9.
11.00000, 9.
11.07000, 12.
11.14000, 8.
11.21000, 12.
11.28000, 10.
11.35000, 6.
11.42000, 10.
11.49000, 13.
11.56000, 10.
11.63000, 9.
11.70000, 8.
11.77000, 13.
11.84000, 12.
11.91000, 6.
11.98000, 8.
12.05000, 7.
12.12000, 8.
12.19000, 8.
12.26000, 8.
12.33000, 8.
12.40000, 7.
12.47000, 8.
12.54000, 10.
12.61000, 6.
12.68000, 6.
12.75000, 7.
12.82000, 10.
12.89000, 12.
12.96000, 6.
13.03000, 11.
13.10000, 12.
13.17000, 8.
13.24000, 8.
13.31000, 9.
13.38000, 7.
13.45000, 7.
13.52000, 5.
13.59000, 8.
13.66000, 6.
13.73000, 6.
13.80000, 6.
13.87000, 3.
13.94000, 4.
14.01000, 7.
14.08000, 5.
14.15000, 5.
14.22000, 6.
14.29000, 3.
14.36000, 3.
14.43000, 4.
14.50000, 6.
14.57000, 3.
14.64000, 7.
14.71000, 4.
14.78000, 3.
14.85000, 5.
14.92000, 2.
14.99000, 5.
15.06000, 7.
15.13000, 5.
15.20000, 6.
15.27000, 2.
15.34000, 2.
15.41000, 3.
15.48000, 5.
15.55000, 4.
15.62000, 3.
15.69000, 4.
15.76000, 4.
15.83000, 7.
15.90000, 2.
15.97000, 5.
16.04000, 7.
16.11000, 6.
16.18000, 2.
16.25000, 7.
16.32000, 3.
16.39000, 2.
16.46000, 3.
16.53000, 7.
16.60000, 2.
16.67000, 4.
16.74000, 2.
16.81000, 3.
16.88000, 6.
16.95000, 3.
17.02000, 2.
17.09000, 3.
17.16000, 3.
17.23000, 3.
17.30000, 1.
17.37000, 2.
17.44000, 5.
17.51000, 4.
17.58000, 2.
17.65000, 1.
17.72000, 1.
17.79000, 1.
17.86000, 1.
17.93000, 3.
18.00000, 2.
18.07000, 0.
18.14000, 2.
18.21000, 1.
18.28000, 2.
18.35000, 0.
18.42000, 2.
18.49000, 0.
18.56000, 1.
18.63000, 0.
18.70000, 1.
18.77000, 2.
18.84000, 1.
18.91000, 2.
18.98000, 0.
19.05000, 1.
19.12000, 1.
19.19000, 2.
19.26000, 0.
19.33000, 0.
19.40000, 1.
19.47000, 0.
19.54000, 1.
19.61000, 0.
19.68000, 0.
19.75000, 0.
19.82000, 0.
19.89000, 0.
19.96000, 0.
20.03000, 0.
20.10000, 0.
20.17000, 0.
20.24000, 0.
20.27000, 0.
#ENDOFDATA   :

File: DD130_9_YF45_3.txt
#FORMAT      : EMSA/MAS Spectral Data File
#VERSION     : 1.0
#TITLE       : Spectrum 1
#DATE        : 04-DEC-2018
#TIME        : 11:05
#OWNER       :
#NPOINTS     : 2048.
#NCOLUMNS    : 1.
#XUNITS      : keV
#YUNITS      : counts
#DATATYPE    : XY
#XPERCHAN    : 0.0100000
#OFFSET      : -0.200000
#SIGNALTYPE  : EDS
#CHOFFSET    : 20.0000
#LIVETIME    : 100
#REALTIME    : 113.001
#BEAMKV      : 20.0000
#PROBECUR    : 0.000000
#MAGCAM      : 1390.00
#XTILTSTGE   : 0.0
#AZIMANGLE   : 0.0
#ELEVANGLE   : 35.0
#XPOSITION mm: 0.0000
#YPOSITION mm: 0.0000
#ZPOSITION mm: 0.0000
##OXINSTPT   : 5
##OXINSTSTROB: 49.08
##OXINSTELEMS: 6,8,11,14,26,27
##OXINSTLABEL: 14, 1.740, Si
##OXINSTLABEL: 26, 6.404, Fe
##OXINSTLABEL: 26, 7.058, Fe
##OXINSTLABEL: 26, 0.705, Fe
##OXINSTLABEL: 26, 0.628, Fe
##OXINSTLABEL: 8, 0.525, O
##OXINSTLABEL: 27, 6.930, Co
##OXINSTLABEL: 27, 7.650, Co
##OXINSTLABEL: 27, 0.776, Co
##OXINSTLABEL: 27, 0.694, Co
##OXINSTLABEL: 27, 0.678, Co
##OXINSTLABEL: 6, 0.277, C
##OXINSTLABEL: 11, 1.041, Na
#SPECTRUM    : Spectral Data Starts Here
-0.20000, 0.
-0.13000, 1.
-0.06000, 41.
0.01000, 5308.
0.08000, 153.
0.15000, 55.
0.22000, 83.
0.29000, 236.
0.36000, 35.
0.43000, 86.
0.50000, 1524.
0.57000, 540.
0.64000, 271.
0.71000, 831.
0.78000, 342.
0.85000, 60.
0.92000, 46.
0.99000, 60.
1.06000, 96.
1.13000, 49.
1.20000, 50.
1.27000, 57.
1.34000, 58.
1.41000, 71.
1.48000, 81.
1.55000, 89.
1.62000, 84.
1.69000, 350.
1.76000, 834.
1.83000, 170.
1.90000, 89.
1.97000, 93.
2.04000, 85.
2.11000, 85.
2.18000, 79.
2.25000, 80.
2.32000, 88.
2.39000, 86.
2.46000, 78.
2.53000, 82.
2.60000, 87.
2.67000, 82.
2.74000, 78.
2.81000, 79.
2.88000, 83.
2.95000, 81.
3.02000, 63.
3.09000, 67.
3.16000, 62.
3.23000, 71.
3.30000, 66.
3.37000, 62.
3.44000, 66.
3.51000, 64.
3.58000, 60.
3.65000, 71.
3.72000, 63.
3.79000, 69.
3.86000, 66.
3.93000, 53.
4.00000, 55.
4.07000, 52.
4.14000, 49.
4.21000, 44.
4.28000, 58.
4.35000, 62.
4.42000, 48.
4.49000, 43.
4.56000, 53.
4.63000, 59.
4.70000, 53.
4.77000, 53.
4.84000, 49.
4.91000, 45.
4.98000, 45.
5.05000, 48.
5.12000, 41.
5.19000, 42.
5.26000, 49.
5.33000, 40.
5.40000, 42.
5.47000, 38.
5.54000, 45.
5.61000, 41.
5.68000, 36.
5.75000, 35.
5.82000, 29.
5.89000, 38.
5.96000, 40.
6.03000, 35.
6.10000, 36.
6.17000, 34.
6.24000, 71.
6.31000, 527.
6.38000, 1409.
6.45000, 1087.
6.52000, 216.
6.59000, 33.
6.66000, 33.
6.73000, 29.
6.80000, 90.
6.87000, 344.
6.94000, 557.
7.01000, 347.
7.08000, 242.
7.15000, 90.
7.22000, 27.
7.29000, 23.
7.36000, 26.
7.43000, 26.
7.50000, 30.
7.57000, 56.
7.64000, 71.
7.71000, 55.
7.78000, 21.
7.85000, 21.
7.92000, 18.
7.99000, 17.
8.06000, 17.
8.13000, 18.
8.20000, 19.
8.27000, 18.
8.34000, 18.
8.41000, 15.
8.48000, 16.
8.55000, 19.
8.62000, 16.
8.69000, 17.
8.76000, 14.
8.83000, 16.
8.90000, 20.
8.97000, 13.
9.04000, 18.
9.11000, 14.
9.18000, 15.
9.25000, 13.
9.32000, 15.
9.39000, 14.
9.46000, 13.
9.53000, 18.
9.60000, 12.
9.67000, 16.
9.74000, 8.
9.81000, 10.
9.88000, 10.
9.95000, 14.
10.02000, 11.
10.09000, 14.
10.16000, 16.
10.23000, 14.
10.30000, 17.
10.37000, 9.
10.44000, 17.
10.51000, 11.
10.58000, 14.
10.65000, 13.
10.72000, 16.
10.79000, 11.
10.86000, 15.
10.93000, 13.
11.00000, 12.
11.07000, 15.
11.14000, 11.
11.21000, 11.
11.28000, 9.
11.35000, 13.
11.42000, 14.
11.49000, 10.
11.56000, 8.
11.63000, 5.
11.70000, 10.
11.77000, 14.
11.84000, 9.
11.91000, 12.
11.98000, 12.
12.05000, 8.
12.12000, 11.
12.19000, 10.
12.26000, 8.
12.33000, 8.
12.40000, 11.
12.47000, 8.
12.54000, 9.
12.61000, 9.
12.68000, 7.
12.75000, 8.
12.82000, 12.
12.89000, 8.
12.96000, 10.
13.03000, 7.
13.10000, 7.
13.17000, 6.
13.24000, 8.
13.31000, 6.
13.38000, 6.
13.45000, 7.
13.52000, 6.
13.59000, 4.
13.66000, 6.
13.73000, 5.
13.80000, 6.
13.87000, 8.
13.94000, 5.
14.01000, 7.
14.08000, 5.
14.15000, 6.
14.22000, 8.
14.29000, 3.
14.36000, 6.
14.43000, 3.
14.50000, 4.
14.57000, 6.
14.64000, 7.
14.71000, 4.
14.78000, 5.
14.85000, 10.
14.92000, 8.
14.99000, 5.
15.06000, 6.
15.13000, 3.
15.20000, 2.
15.27000, 2.
15.34000, 5.
15.41000, 6.
15.48000, 6.
15.55000, 6.
15.62000, 3.
15.69000, 5.
15.76000, 2.
15.83000, 5.
15.90000, 5.
15.97000, 3.
16.04000, 5.
16.11000, 4.
16.18000, 5.
16.25000, 3.
16.32000, 5.
16.39000, 5.
16.46000, 2.
16.53000, 5.
16.60000, 2.
16.67000, 0.
16.74000, 0.
16.81000, 3.
16.88000, 0.
16.95000, 1.
17.02000, 2.
17.09000, 0.
17.16000, 3.
17.23000, 1.
17.30000, 1.
17.37000, 1.
17.44000, 1.
17.51000, 2.
17.58000, 1.
17.65000, 0.
17.72000, 3.
17.79000, 0.
17.86000, 1.
17.93000, 1.
18.00000, 4.
18.07000, 1.
18.14000, 1.
18.21000, 0.
18.28000, 4.
18.35000, 1.
18.42000, 3.
18.49000, 0.
18.56000, 0.
18.63000, 2.
18.70000, 0.
18.77000, 1.
18.84000, 0.
18.91000, 1.
18.98000, 1.
19.05000, 0.
19.12000, 1.
19.19000, 1.
19.26000, 0.
19.33000, 1.
19.40000, 1.
19.47000, 0.
19.54000, 0.
19.61000, 0.
19.68000, 0.
19.75000, 0.
19.82000, 0.
19.89000, 0.
19.96000, 0.
20.03000, 0.
20.10000, 0.
20.17000, 0.
20.24000, 0.
20.27000, 0.
#ENDOFDATA   :

File: DD130_9_YF45_4.txt
#FORMAT      : EMSA/MAS Spectral Data File
#VERSION     : 1.0
#TITLE       : Spectrum 1
#DATE        : 04-DEC-2018
#TIME        : 11:08
#OWNER       :
#NPOINTS     : 2048.
#NCOLUMNS    : 1.
#XUNITS      : keV
#YUNITS      : counts
#DATATYPE    : XY
#XPERCHAN    : 0.0100000
#OFFSET      : -0.200000
#SIGNALTYPE  : EDS
#CHOFFSET    : 20.0000
#LIVETIME    : 100
#REALTIME    : 112.364
#BEAMKV      : 20.0000
#PROBECUR    : 0.000000
#MAGCAM      : 1390.00
#XTILTSTGE   : 0.0
#AZIMANGLE   : 0.0
#ELEVANGLE   : 35.0
#XPOSITION mm: 0.0000
#YPOSITION mm: 0.0000
#ZPOSITION mm: 0.0000
##OXINSTPT   : 5
##OXINSTSTROB: 49.05
##OXINSTELEMS: 6,8,11,14,26,27
##OXINSTLABEL: 26, 6.404, Fe
##OXINSTLABEL: 26, 7.058, Fe
##OXINSTLABEL: 26, 0.705, Fe
##OXINSTLABEL: 26, 0.628, Fe
##OXINSTLABEL: 14, 1.740, Si
##OXINSTLABEL: 8, 0.525, O
##OXINSTLABEL: 27, 6.930, Co
##OXINSTLABEL: 27, 7.650, Co
##OXINSTLABEL: 27, 0.776, Co
##OXINSTLABEL: 27, 0.694, Co
##OXINSTLABEL: 27, 0.678, Co
##OXINSTLABEL: 6, 0.277, C
##OXINSTLABEL: 11, 1.041, Na
#SPECTRUM    : Spectral Data Starts Here
-0.20000, 0.
-0.13000, 0.
-0.06000, 31.
0.01000, 5485.
0.08000, 115.
0.15000, 48.
0.22000, 69.
0.29000, 182.
0.36000, 35.
0.43000, 80.
0.50000, 1445.
0.57000, 522.
0.64000, 240.
0.71000, 698.
0.78000, 273.
0.85000, 47.
0.92000, 20.
0.99000, 48.
1.06000, 60.
1.13000, 46.
1.20000, 39.
1.27000, 59.
1.34000, 63.
1.41000, 62.
1.48000, 70.
1.55000, 68.
1.62000, 72.
1.69000, 120.
1.76000, 179.
1.83000, 98.
1.90000, 78.
1.97000, 89.
2.04000, 85.
2.11000, 90.
2.18000, 76.
2.25000, 84.
2.32000, 89.
2.39000, 86.
2.46000, 78.
2.53000, 95.
2.60000, 96.
2.67000, 97.
2.74000, 85.
2.81000, 94.
2.88000, 75.
2.95000, 78.
3.02000, 76.
3.09000, 71.
3.16000, 74.
3.23000, 68.
3.30000, 73.
3.37000, 69.
3.44000, 76.
3.51000, 72.
3.58000, 66.
3.65000, 69.
3.72000, 73.
3.79000, 67.
3.86000, 55.
3.93000, 62.
4.00000, 53.
4.07000, 51.
4.14000, 61.
4.21000, 65.
4.28000, 45.
4.35000, 56.
4.42000, 50.
4.49000, 47.
4.56000, 53.
4.63000, 54.
4.70000, 55.
4.77000, 37.
4.84000, 51.
4.91000, 34.
4.98000, 38.
5.05000, 46.
5.12000, 38.
5.19000, 47.
5.26000, 45.
5.33000, 45.
5.40000, 43.
5.47000, 44.
5.54000, 32.
5.61000, 42.
5.68000, 36.
5.75000, 51.
5.82000, 36.
5.89000, 42.
5.96000, 40.
6.03000, 43.
6.10000, 35.
6.17000, 48.
6.24000, 83.
6.31000, 512.
6.38000, 1616.
6.45000, 1181.
6.52000, 238.
6.59000, 43.
6.66000, 34.
6.73000, 41.
6.80000, 84.
6.87000, 365.
6.94000, 595.
7.01000, 407.
7.08000, 229.
7.15000, 99.
7.22000, 20.
7.29000, 17.
7.36000, 15.
7.43000, 20.
7.50000, 28.
7.57000, 45.
7.64000, 86.
7.71000, 48.
7.78000, 29.
7.85000, 27.
7.92000, 25.
7.99000, 24.
8.06000, 12.
8.13000, 14.
8.20000, 14.
8.27000, 18.
8.34000, 27.
8.41000, 19.
8.48000, 13.
8.55000, 19.
8.62000, 20.
8.69000, 16.
8.76000, 19.
8.83000, 18.
8.90000, 17.
8.97000, 13.
9.04000, 14.
9.11000, 19.
9.18000, 15.
9.25000, 9.
9.32000, 12.
9.39000, 21.
9.46000, 15.
9.53000, 11.
9.60000, 14.
9.67000, 19.
9.74000, 16.
9.81000, 13.
9.88000, 11.
9.95000, 16.
10.02000, 11.
10.09000, 14.
10.16000, 12.
10.23000, 15.
10.30000, 16.
10.37000, 8.
10.44000, 14.
10.51000, 10.
10.58000, 5.
10.65000, 15.
10.72000, 8.
10.79000, 8.
10.86000, 13.
10.93000, 14.
11.00000, 7.
11.07000, 11.
11.14000, 8.
11.21000, 11.
11.28000, 15.
11.35000, 12.
11.42000, 13.
11.49000, 10.
11.56000, 12.
11.63000, 7.
11.70000, 10.
11.77000, 9.
11.84000, 13.
11.91000, 10.
11.98000, 6.
12.05000, 10.
12.12000, 7.
12.19000, 10.
12.26000, 6.
12.33000, 10.
12.40000, 7.
12.47000, 12.
12.54000, 10.
12.61000, 8.
12.68000, 6.
12.75000, 9.
12.82000, 7.
12.89000, 8.
12.96000, 8.
13.03000, 9.
13.10000, 9.
13.17000, 7.
13.24000, 10.
13.31000, 5.
13.38000, 11.
13.45000, 7.
13.52000, 7.
13.59000, 10.
13.66000, 7.
13.73000, 5.
13.80000, 6.
13.87000, 6.
13.94000, 6.
14.01000, 5.
14.08000, 7.
14.15000, 7.
14.22000, 7.
14.29000, 6.
14.36000, 5.
14.43000, 6.
14.50000, 5.
14.57000, 7.
14.64000, 5.
14.71000, 5.
14.78000, 3.
14.85000, 6.
14.92000, 4.
14.99000, 6.
15.06000, 7.
15.13000, 3.
15.20000, 5.
15.27000, 8.
15.34000, 0.
15.41000, 6.
15.48000, 4.
15.55000, 3.
15.62000, 3.
15.69000, 7.
15.76000, 4.
15.83000, 1.
15.90000, 4.
15.97000, 3.
16.04000, 7.
16.11000, 3.
16.18000, 6.
16.25000, 1.
16.32000, 2.
16.39000, 2.
16.46000, 2.
16.53000, 1.
16.60000, 1.
16.67000, 3.
16.74000, 2.
16.81000, 0.
16.88000, 4.
16.95000, 0.
17.02000, 3.
17.09000, 2.
17.16000, 3.
17.23000, 0.
17.30000, 5.
17.37000, 3.
17.44000, 2.
17.51000, 1.
17.58000, 2.
17.65000, 3.
17.72000, 0.
17.79000, 1.
17.86000, 2.
17.93000, 1.
18.00000, 2.
18.07000, 0.
18.14000, 1.
18.21000, 1.
18.28000, 0.
18.35000, 1.
18.42000, 0.
18.49000, 1.
18.56000, 2.
18.63000, 1.
18.70000, 2.
18.77000, 0.
18.84000, 1.
18.91000, 1.
18.98000, 0.
19.05000, 2.
19.12000, 0.
19.19000, 0.
19.26000, 1.
19.33000, 0.
19.40000, 0.
19.47000, 0.
19.54000, 0.
19.61000, 0.
19.68000, 0.
19.75000, 0.
19.82000, 0.
19.89000, 0.
19.96000, 0.
20.03000, 0.
20.10000, 0.
20.17000, 0.
20.24000, 0.
20.27000, 0.
#ENDOFDATA   :

File: DD130_9_YF45_5.txt
#FORMAT      : EMSA/MAS Spectral Data File
#VERSION     : 1.0
#TITLE       : Spectrum 1
#DATE        : 04-DEC-2018
#TIME        : 11:10
#OWNER       :
#NPOINTS     : 2048.
#NCOLUMNS    : 1.
#XUNITS      : keV
#YUNITS      : counts
#DATATYPE    : XY
#XPERCHAN    : 0.0100000
#OFFSET      : -0.200000
#SIGNALTYPE  : EDS
#CHOFFSET    : 20.0000
#LIVETIME    : 100
#REALTIME    : 112.445
#BEAMKV      : 20.0000
#PROBECUR    : 0.000000
#MAGCAM      : 1390.00
#XTILTSTGE   : 0.0
#AZIMANGLE   : 0.0
#ELEVANGLE   : 35.0
#XPOSITION mm: 0.0000
#YPOSITION mm: 0.0000
#ZPOSITION mm: 0.0000
##OXINSTPT   : 5
##OXINSTSTROB: 49.04
##OXINSTELEMS: 5,6,8,11,14,26,27
##OXINSTLABEL: 26, 6.404, Fe
##OXINSTLABEL: 26, 7.058, Fe
##OXINSTLABEL: 26, 0.705, Fe
##OXINSTLABEL: 26, 0.628, Fe
##OXINSTLABEL: 8, 0.525, O
##OXINSTLABEL: 27, 6.930, Co
##OXINSTLABEL: 27, 7.650, Co
##OXINSTLABEL: 27, 0.776, Co
##OXINSTLABEL: 27, 0.694, Co
##OXINSTLABEL: 27, 0.678, Co
##OXINSTLABEL: 6, 0.277, C
##OXINSTLABEL: 11, 1.041, Na
##OXINSTLABEL: 14, 1.740, Si
##OXINSTLABEL: 5, 0.183, B
#SPECTRUM    : Spectral Data Starts Here
-0.20000, 0.
-0.13000, 0.
-0.06000, 38.
0.01000, 5374.
0.08000, 113.
0.15000, 115.
0.22000, 61.
0.29000, 178.
0.36000, 26.
0.43000, 90.
0.50000, 1526.
0.57000, 520.
0.64000, 250.
0.71000, 679.
0.78000, 300.
0.85000, 62.
0.92000, 26.
0.99000, 50.
1.06000, 72.
1.13000, 57.
1.20000, 45.
1.27000, 62.
1.34000, 58.
1.41000, 71.
1.48000, 67.
1.55000, 71.
1.62000, 79.
1.69000, 91.
1.76000, 117.
1.83000, 80.
1.90000, 78.
1.97000, 88.
2.04000, 93.
2.11000, 88.
2.18000, 86.
2.25000, 77.
2.32000, 82.
2.39000, 83.
2.46000, 86.
2.53000, 74.
2.60000, 86.
2.67000, 85.
2.74000, 82.
2.81000, 80.
2.88000, 69.
2.95000, 69.
3.02000, 85.
3.09000, 94.
3.16000, 85.
3.23000, 79.
3.30000, 69.
3.37000, 66.
3.44000, 74.
3.51000, 60.
3.58000, 69.
3.65000, 72.
3.72000, 51.
3.79000, 63.
3.86000, 59.
3.93000, 57.
4.00000, 55.
4.07000, 57.
4.14000, 59.
4.21000, 53.
4.28000, 51.
4.35000, 45.
4.42000, 46.
4.49000, 59.
4.56000, 48.
4.63000, 48.
4.70000, 46.
4.77000, 45.
4.84000, 45.
4.91000, 49.
4.98000, 52.
5.05000, 53.
5.12000, 49.
5.19000, 45.
5.26000, 40.
5.33000, 41.
5.40000, 36.
5.47000, 37.
5.54000, 32.
5.61000, 45.
5.68000, 34.
5.75000, 41.
5.82000, 44.
5.89000, 40.
5.96000, 32.
6.03000, 40.
6.10000, 33.
6.17000, 41.
6.24000, 82.
6.31000, 537.
6.38000, 1648.
6.45000, 1261.
6.52000, 206.
6.59000, 38.
6.66000, 38.
6.73000, 38.
6.80000, 93.
6.87000, 388.
6.94000, 581.
7.01000, 408.
7.08000, 212.
7.15000, 91.
7.22000, 19.
7.29000, 20.
7.36000, 21.
7.43000, 28.
7.50000, 29.
7.57000, 56.
7.64000, 90.
7.71000, 67.
7.78000, 31.
7.85000, 25.
7.92000, 18.
7.99000, 21.
8.06000, 27.
8.13000, 17.
8.20000, 9.
8.27000, 24.
8.34000, 19.
8.41000, 14.
8.48000, 17.
8.55000, 18.
8.62000, 24.
8.69000, 21.
8.76000, 22.
8.83000, 14.
8.90000, 12.
8.97000, 17.
9.04000, 14.
9.11000, 19.
9.18000, 12.
9.25000, 17.
9.32000, 12.
9.39000, 12.
9.46000, 19.
9.53000, 15.
9.60000, 15.
9.67000, 12.
9.74000, 13.
9.81000, 10.
9.88000, 10.
9.95000, 13.
10.02000, 15.
10.09000, 12.
10.16000, 10.
10.23000, 15.
10.30000, 12.
10.37000, 12.
10.44000, 13.
10.51000, 10.
10.58000, 11.
10.65000, 12.
10.72000, 15.
10.79000, 11.
10.86000, 11.
10.93000, 15.
11.00000, 10.
11.07000, 13.
11.14000, 10.
11.21000, 8.
11.28000, 15.
11.35000, 14.
11.42000, 12.
11.49000, 12.
11.56000, 12.
11.63000, 7.
11.70000, 6.
11.77000, 12.
11.84000, 11.
11.91000, 9.
11.98000, 10.
12.05000, 9.
12.12000, 7.
12.19000, 7.
12.26000, 9.
12.33000, 11.
12.40000, 7.
12.47000, 5.
12.54000, 7.
12.61000, 10.
12.68000, 7.
12.75000, 8.
12.82000, 4.
12.89000, 7.
12.96000, 9.
13.03000, 8.
13.10000, 10.
13.17000, 8.
13.24000, 4.
13.31000, 8.
13.38000, 7.
13.45000, 9.
13.52000, 3.
13.59000, 8.
13.66000, 5.
13.73000, 2.
13.80000, 7.
13.87000, 9.
13.94000, 8.
14.01000, 5.
14.08000, 7.
14.15000, 8.
14.22000, 8.
14.29000, 6.
14.36000, 6.
14.43000, 4.
14.50000, 5.
14.57000, 6.
14.64000, 5.
14.71000, 5.
14.78000, 4.
14.85000, 5.
14.92000, 2.
14.99000, 5.
15.06000, 4.
15.13000, 3.
15.20000, 8.
15.27000, 6.
15.34000, 4.
15.41000, 3.
15.48000, 8.
15.55000, 3.
15.62000, 6.
15.69000, 5.
15.76000, 3.
15.83000, 5.
15.90000, 7.
15.97000, 4.
16.04000, 4.
16.11000, 3.
16.18000, 7.
16.25000, 4.
16.32000, 3.
16.39000, 1.
16.46000, 4.
16.53000, 1.
16.60000, 3.
16.67000, 1.
16.74000, 3.
16.81000, 4.
16.88000, 1.
16.95000, 1.
17.02000, 0.
17.09000, 2.
17.16000, 3.
17.23000, 1.
17.30000, 1.
17.37000, 1.
17.44000, 4.
17.51000, 1.
17.58000, 2.
17.65000, 1.
17.72000, 1.
17.79000, 0.
17.86000, 2.
17.93000, 2.
18.00000, 0.
18.07000, 1.
18.14000, 1.
18.21000, 1.
18.28000, 0.
18.35000, 2.
18.42000, 2.
18.49000, 0.
18.56000, 0.
18.63000, 0.
18.70000, 0.
18.77000, 1.
18.84000, 1.
18.91000, 0.
18.98000, 1.
19.05000, 0.
19.12000, 1.
19.19000, 0.
19.26000, 0.
19.33000, 0.
19.40000, 0.
19.47000, 0.
19.54000, 0.
19.61000, 1.
19.68000, 0.
19.75000, 0.
19.82000, 0.
19.89000, 0.
19.96000, 0.
20.03000, 0.
20.10000, 0.
20.17000, 0.
20.24000, 0.
20.27000, 0.
#ENDOFDATA   :