Folder: PhDThesis/data/monolayers/nanoparticles/Ac_CoFe_C/vsm/Backup (part 2)

File: AH11_ZFC_LangevinSAXSscaled.xye
#Executed at: 2018-11-15 15:45:37.0535
#Loaded File	 = ../rawdata/DD226_2_ZFCW_100OE.DAT
#Rescale Factor	 = 4.32812
#[[Data]]
#T/K	M/kAm-1	sM/kAm-1	M_raw/memu	sM_raw/memu
10.0116	-2.10069	1.33138	-0.485358	0.307612
11.0279	-0.620854	1.30473	-0.143446	0.301454
12.5428	-1.16179	1.22887	-0.268427	0.283928
14.0002	-1.82604	1.1535	-0.421902	0.266513
15.5487	-1.55947	1.18657	-0.360311	0.274153
17.0303	-1.95418	1.1331	-0.451508	0.261799
18.5053	-0.956513	1.11638	-0.221	0.257937
20.822	-1.89113	1.48747	-0.436941	0.343676
22.0143	-1.45062	1.21227	-0.335162	0.280092
23.5281	-2.64652	1.16848	-0.611469	0.269975
25.0673	-0.824489	1.33036	-0.190496	0.307375
26.5238	-0.322572	1.34612	-0.0745294	0.311017
28.0644	-0.747743	1.17529	-0.172764	0.271547
29.5294	-1.52247	1.29728	-0.351762	0.299732
31.506	-1.36485	1.11731	-0.315344	0.258151
33.0505	-1.48282	1.34912	-0.342602	0.311711
34.5375	-0.59327	1.23426	-0.137073	0.285171
36.0161	-0.94419	1.19013	-0.218152	0.274977
37.5248	-2.26734	1.39737	-0.523862	0.322857
39.0432	-2.35314	1.27682	-0.543685	0.295005
40.57061	-1.39211	1.52156	-0.321642	0.351552
42.5183	-2.2044	1.24769	-0.509319	0.288275
44.0541	-0.964545	1.08185	-0.222855	0.249957
45.5094	-0.0035373	1.0801	-0.000817283	0.249553
47.0006	-0.94612	1.41227	-0.218598	0.3263
48.5103	-2.08128	1.23521	-0.480874	0.285391
50.0065	-0.86119	1.28845	-0.198975	0.297692
52.1011	-0.00247662	1.26017	-0.000572215	0.291159
53.5395	-0.240597	1.09459	-0.0555892	0.252901
55.07	-0.322051	1.09381	-0.0744088	0.252721
56.5276	-0.48843	1.30263	-0.11285	0.300969
58.0263	-0.336746	1.34485	-0.0778041	0.310723
59.5338	-0.944474	1.32175	-0.218218	0.305386
61.0486	-0.662263	1.09207	-0.153014	0.252319
63.0092	-1.47359	1.20111	-0.340469	0.277514
64.5248	-1.56621	1.29238	-0.361868	0.2986
66.0193	-0.644562	1.27942	-0.148924	0.295607
67.5617	-0.365804	1.23632	-0.084518	0.285648
69.0313	-0.469621	1.24487	-0.108504	0.287625
70.5568	-1.19068	1.00353	-0.275104	0.231862
72.0225	-1.63039	1.2587	-0.376696	0.290819
73.555	-1.55282	1.06766	-0.358775	0.246679
74.5721	-1.27132	1.36003	-0.293734	0.314232
76.0274	-0.0164211	1.3881	-0.00379405	0.320716
77.5043	-1.08122	1.11212	-0.249812	0.256951
79.0267	-0.216515	1.48502	-0.0500252	0.343109
80.5661	-1.6024	1.31507	-0.370229	0.303843
82.0007	-1.6595	1.14569	-0.383423	0.264708
84.0792	-1.05398	1.41622	-0.243519	0.327214
85.541	-0.985156	1.445	-0.227617	0.333863
87.0616	0.155268	1.62053	0.0358742	0.374419
88.5533	-0.859554	1.25975	-0.198597	0.291062
90.0578	-0.899057	1.29333	-0.207724	0.298819
91.6152	-2.1398	1.15743	-0.494395	0.26742
93.0185	-0.361298	1.26739	-0.0834769	0.292826
95.0444	-0.746826	1.46202	-0.172552	0.337796
96.6233	-0.681551	1.10703	-0.15747	0.255776
98.0032	-1.75016	1.15292	-0.404369	0.266378
99.5393	-1.0081	1.37083	-0.232918	0.316727
101.062	0.1462	1.38685	0.033779	0.320428
102.525	0.183673	1.42618	0.0424371	0.329514
104.452	-1.72888	1.34354	-0.399453	0.31042
105.54	0.0982379	1.34767	0.0226976	0.311375
107.013	-0.500235	1.233	-0.115578	0.28488
108.564	-0.812674	1.32038	-0.187766	0.305071
110.059	0.131497	1.36326	0.030382	0.314977
111.544	-0.711398	1.19891	-0.164366	0.277005
113.059	-0.0313874	1.36369	-0.00725197	0.315076
114.864	-0.372549	1.12419	-0.0860763	0.25974
116.046	-1.14634	1.17265	-0.264859	0.270936
117.514	0.369514	1.39308	0.0853751	0.321867
119.065	-0.246866	1.23489	-0.0570377	0.285319
120.554	1.20283	1.14654	0.277911	0.264904
122.017	-1.03673	1.47831	-0.239533	0.341558
123.534	-1.32843	1.46469	-0.30693	0.338413
125.553	-2.16621	1.16956	-0.500496	0.270224
127.048	-0.408964	1.41617	-0.09449	0.327201
128.533	-1.61512	1.28837	-0.37317	0.297673
130.036	0.510722	1.35534	0.118001	0.313147
131.504	-0.982619	1.37147	-0.227031	0.316874
133.059	0.739361	1.29052	0.170827	0.298171
134.541	0.0753837	1.21219	0.0174172	0.280073
136.558	-0.407931	1.28615	-0.0942511	0.297161
138.056	-0.480929	1.34895	-0.111117	0.31167
139.528	-0.0824094	1.17936	-0.0190404	0.272487
141.021	0.236402	1.3801	0.05462	0.318869
142.52	-1.389	1.28569	-0.320924	0.297055
144.024	0.268056	1.17976	0.0619336	0.272581
146.073	-0.380766	1.1435	-0.0879748	0.264201
147.512	-0.551324	1.22732	-0.127382	0.283569
149.014	-0.762027	1.42682	-0.176064	0.329662
150.531	-0.294655	1.44799	-0.0680791	0.334555
152.046	-0.829433	1.56127	-0.191638	0.360727
153.539	1.8445	1.13548	0.426166	0.262349
155.052	0.431041	1.19413	0.0995907	0.2759
157.032	0.0283299	1.52397	0.00654554	0.352109
158.507	-0.14722	1.18453	-0.0340146	0.273682
160.047	-0.454241	1.40742	-0.104951	0.32518
161.548	0.522655	1.3918	0.120758	0.321571
163.013	-1.46654	1.01205	-0.33884	0.23383
164.541	-0.734032	1.46984	-0.169596	0.339602
166.026	-1.48652	1.19571	-0.343455	0.276265
168.044	-1.42262	1.54323	-0.328693	0.35656
169.528	1.12251	1.39363	0.259353	0.321995
171.015	1.38476	1.27738	0.319944	0.295135
172.55	0.628602	1.33721	0.145237	0.308957
174.078	0.15727	1.47165	0.0363368	0.340021
175.508	0.0843201	1.23476	0.0194819	0.285288
177.38	-0.631134	1.44699	-0.145822	0.334323
178.563	2.7388	1.38813	0.632791	0.320724
180.001	1.13226	1.39577	0.261605	0.322489
181.539	-0.995736	1.55469	-0.230062	0.359206
183.019	1.08522	1.52738	0.250736	0.352897
184.517	1.32861	1.4797	0.306971	0.34188
186.011	0.753072	1.42441	0.173995	0.329105
187.851	1.33244	1.2119	0.307857	0.280006
189.052	1.61852	1.22288	0.373955	0.282543
190.522	0.759996	1.506	0.175595	0.347956
192.053	0.489034	1.80799	0.11299	0.41773
193.512	2.29494	1.43316	0.530238	0.331127
195.026	1.46648	1.56131	0.338826	0.360735
196.56	1.57624	1.45447	0.364187	0.336051
198.528	1.57986	1.55151	0.365022	0.358473
200.023	1.14191	1.73933	0.263835	0.401868
201.517	3.3488	1.39307	0.77373	0.321864
203.041	1.69927	1.15979	0.39261	0.267966
204.513	2.02979	1.2573	0.468976	0.290496
206.037	3.10923	1.22404	0.718379	0.282811
207.553	3.841	1.50197	0.887451	0.347026
209.517	2.59774	1.54288	0.600199	0.356478
211.005	3.36422	1.38955	0.777292	0.321052
212.526	4.0173	1.40559	0.928186	0.324758
214.011	3.56373	1.56318	0.82339	0.361168
215.513	3.81867	1.50098	0.882292	0.346797
217.021	3.73529	1.60287	0.863026	0.370339
219.072	4.17606	1.30543	0.964866	0.301616
220.52	4.75444	1.48919	1.0985	0.344072
222.039	6.61762	1.44247	1.52898	0.333278
223.526	8.56185	1.73642	1.97819	0.401195
225.045	5.66653	1.50891	1.30924	0.348629
226.521	5.60346	1.42694	1.29466	0.329689
228.09	8.09751	1.73152	1.8709	0.400063
230.022	8.27343	1.28119	1.91155	0.296014
231.507	8.36934	1.6865	1.93371	0.389661
233.034	7.38351	1.48624	1.70594	0.343392
234.506	9.04266	1.54132	2.08928	0.356118
236.03	9.14583	1.69248	2.11312	0.391043
237.533	9.85251	1.56769	2.27639	0.36221
239.032	9.8722	1.20526	2.28094	0.278472
241.043	11.4734	1.56677	2.65089	0.361999
242.565	11.1288	1.67033	2.57127	0.385924
244.002	13.4921	1.58371	3.11731	0.365912
245.566	12.956	1.95314	2.99344	0.451267
247.027	13.8451	1.53906	3.19887	0.355595
248.525	13.7558	1.93937	3.17823	0.448086
250.448	15.3198	1.70942	3.5396	0.394955
251.512	14.7136	1.50763	3.39953	0.348333
253.052	15.2667	1.56286	3.52732	0.361094
254.512	18.7924	1.83953	4.34193	0.425017
256.005	18.3878	2.36911	4.24845	0.547377
257.531	17.0137	1.85674	3.93096	0.428993
259.024	18.6275	1.84811	4.30384	0.427001
261.041	18.9257	1.35251	4.37273	0.312495
262.525	21.9869	2.11957	5.08001	0.48972
264.028	21.0107	1.51248	4.85445	0.349455
265.506	21.5995	1.67141	4.9905	0.386174
267.038	22.5235	1.77962	5.20398	0.411177
268.539	22.0991	2.14578	5.10594	0.495776
270.043	22.521	1.75132	5.20341	0.404636
272.044	24.5758	1.53952	5.67817	0.355703
273.5	25.939	1.86063	5.99314	0.429893
275.03	25.2673	1.52459	5.83793	0.352253
276.515	25.5891	1.45297	5.91228	0.335705
278.048	26.3728	1.65775	6.09336	0.383019
279.53	27.0816	1.75538	6.25712	0.405575
281.706	28.3055	1.6109	6.5399	0.372193
283.061	27.7596	1.76235	6.41376	0.407186
284.552	29.0134	2.00814	6.70345	0.463975
286.016	31.5791	1.82896	7.29627	0.422577
287.522	30.4484	1.83428	7.03501	0.423804
289.005	29.7491	1.62994	6.87344	0.376592
290.508	30.8663	1.87523	7.13157	0.433267
292.523	31.9835	2.00808	7.3897	0.46396
294.021	31.3926	1.99473	7.25318	0.460877
295.506	29.2872	1.8894	6.76671	0.436541
297.053	32.5499	1.83206	7.52056	0.423293
298.511	30.7358	1.73353	7.10141	0.400526
300.052	31.0941	1.8326	7.18419	0.423416
301.524	31.5601	2.23147	7.29187	0.515576
303.54	31.4506	1.72877	7.26657	0.399426
305.023	31.7084	1.76767	7.32613	0.408414
306.582	33.873	1.97727	7.82625	0.456843
308.062	35.2842	1.67476	8.15232	0.386949
309.549	33.1557	1.62854	7.66054	0.376269
311.068	29.4502	2.1081	6.80438	0.48707
312.932	31.3729	1.58475	7.24862	0.366152
314.016	30.6722	1.78735	7.08672	0.412963
315.531	31.7964	1.79439	7.34646	0.414589
317.048	32.2807	2.11627	7.45835	0.488959
318.516	33.3666	1.83083	7.70925	0.423007
320.04	32.0156	1.92697	7.39712	0.44522
321.524	30.0511	2.13269	6.94322	0.492752
323.508	30.7318	1.89463	7.1005	0.437749
325.012	31.329	2.20693	7.23848	0.509905
326.543	32.4583	2.41976	7.49939	0.559077
328.01	32.9835	1.63491	7.62075	0.377741
329.517	30.8466	1.88008	7.12701	0.434386
331.037	29.8158	1.61885	6.88886	0.37403
332.502	30.2577	1.60063	6.99096	0.369821
334.5	30.9765	1.9689	7.15702	0.454909
336.046	30.6412	2.41221	7.07957	0.557334
337.549	32.5794	1.91757	7.52737	0.443049
339.028	32.3185	1.87694	7.46709	0.433662
340.515	28.124	2.20134	6.49796	0.508614
342.028	30.3106	1.69943	7.00317	0.392647
344.251	28.8459	1.80303	6.66476	0.416586
345.513	28.4	1.94286	6.56174	0.448891
347.014	30.7833	2.06145	7.1124	0.476293
348.53	30.6001	1.83993	7.07005	0.425111
349.751	28.3618	1.58096	6.55292	0.365275