Folder: PhDThesis/data/monolayers/nanoparticles/Ac_CoFe_C/vsm/rescale

Note: README.md
# PhDThesis

Color palette:
- #0EA8DF #MatNat Blau
- #EE292F #Medizin Rot
- #FAAB2D #HumWis Orange
- #76C152 #Wiwi Gruen
- #7F0128 #Rechtswis Bordeaux
- #793394 #Philo Violett

Sample Translation
- Ol-CoFe-C : DD67
- Ac-CoFe-C : AH11
- Ac-CoFe-C-YF : YF45

File: AH11_10K_LangevinSAXSscaled.xye
#Executed at: 2018-11-15 15:45:37.5722
#Loaded File	 = ../rawdata/DD226_2_HYST_10K_REPEAT_3.DAT
#Rescale Factor	 = 4.32812
#[[Data]]
#B/T	M/kAm-1	sM/kAm-1	M_raw/memu	sM_raw/memu
-3.50147e-05	161.169	1.60967	37.2376	0.371909
0.21722	138.383	1.47489	31.973	0.34077
0.438609	114.991	1.25365	26.5684	0.289653
0.65507	89.6368	1.34797	20.7103	0.311444
0.872677	59.6397	1.70905	13.7796	0.394872
1.09337	26.9464	1.42811	6.2259	0.329962
1.31474	-5.6593	1.4062	-1.30756	0.324899
1.55164	-38.6261	1.77891	-8.92445	0.411011
1.78101	-73.6675	1.91165	-17.0207	0.441681
2.01165	-106.427	2.0119	-24.5896	0.464843
2.23306	-139.878	1.92047	-32.3184	0.443719
2.46516	-173.264	1.84386	-40.0321	0.426019
2.68358	-206.836	2.02843	-47.7888	0.468663
2.91297	-238.325	2.5236	-55.0643	0.583069
3.1404	-273.814	2.47848	-63.2639	0.572646
3.3705	-306.039	2.53481	-70.7094	0.58566
3.58837	-340.494	2.47099	-78.6701	0.570915
3.81048	-371.621	2.40501	-85.862	0.555671
4.03416	-404.983	2.66009	-93.5702	0.614605
4.27179	-441.262	2.24046	-101.952	0.517651
4.47698	-475.897	2.54908	-109.955	0.588958
4.70785	-507.514	2.33017	-117.26	0.538379
4.93925	-545.604	3.00804	-126.06	0.694999
5.17012	-582.117	2.73325	-134.496	0.631509
5.3935	-615.347	4.46288	-142.174	1.03113
5.62512	-652.667	3.0656	-150.797	0.708299
5.84803	-686.588	2.26046	-158.634	0.522272
6.07292	-721.653	2.89683	-166.736	0.669304
6.30286	-757.989	2.78103	-175.131	0.642549
6.525	-793.196	5.18734	-183.266	1.19852
6.74765	-827.257	3.16658	-191.135	0.73163
6.97503	-860.444	3.37623	-198.803	0.780067
7.19669	-896.23	4.00071	-207.071	0.924352
7.42082	-935.466	3.20431	-216.137	0.740345
7.64277	-968.961	3.03528	-223.876	0.701293
7.86815	-1003.13	3.39318	-231.77	0.783983
8.09486	-1044.39	3.37415	-241.303	0.779587
8.33177	-1078.4	3.67769	-249.161	0.84972
8.5582	-1111.01	3.2671	-256.695	0.754854
8.77533	-1147.95	4.8899	-265.231	1.1298
8.99125	-1180.11	2.91678	-272.66	0.673914
8.80728	-1158.32	3.28108	-267.626	0.758083
8.59114	-1119.57	3.58282	-258.674	0.8278
8.37442	-1081.92	3.57078	-249.973	0.825018
8.14729	-1048.63	3.57153	-242.284	0.825192
7.9001	-1008.49	2.65471	-233.009	0.613363
7.66819	-976.59	3.96605	-225.638	0.916343
7.42972	-932.289	3.10382	-215.403	0.717129
7.19158	-904.403	2.67995	-208.96	0.619195
6.95716	-859.447	3.38868	-198.573	0.782944
6.72103	-822.705	2.82498	-190.084	0.652703
6.4851	-783.647	3.94044	-181.059	0.910428
6.24873	-748.82	3.60604	-173.013	0.833165
6.01978	-710.844	3.28941	-164.238	0.760007
5.77461	-677.711	3.7339	-156.583	0.862705
5.54328	-634.226	3.22827	-146.536	0.745882
5.30835	-601.845	3.21768	-139.054	0.743436
5.08072	-567.347	2.71717	-131.084	0.627794
4.8481	-526.753	2.88678	-121.705	0.666981
4.60924	-493.369	3.69533	-113.992	0.853795
4.3733	-457.134	2.48688	-105.62	0.574586
4.12718	-418.889	2.44963	-96.783	0.565981
3.90127	-382.453	3.01368	-88.3646	0.696303
3.66844	-351.08	2.60586	-81.1161	0.602076
3.43431	-312.689	2.84074	-72.2458	0.656344
3.20545	-278.887	2.35043	-64.436	0.543061
2.97982	-245.352	2.37757	-56.6879	0.549332
2.74645	-208.854	2.26161	-48.2551	0.522538
2.51676	-174.042	2.55219	-40.2118	0.589677
2.27967	-138.894	2.27615	-32.0911	0.525898
2.06077	-107.738	2.12829	-24.8926	0.491734
1.83591	-71.1611	1.69701	-16.4416	0.392089
1.60004	-34.7973	1.62561	-8.0398	0.375591
1.37143	-2.8918	1.55524	-0.668141	0.359333
1.15026	28.6213	1.95426	6.61287	0.451525
0.926154	59.8832	1.60725	13.8358	0.37135
0.701718	86.9973	1.35901	20.1005	0.313995
0.48434	115.265	1.58973	26.6315	0.367303
0.265153	136.816	1.54129	31.611	0.356111
0.0444404	158.571	1.32107	36.6374	0.30523
-0.179846	175.544	1.4351	40.559	0.331575
-0.403425	189.085	6.79112	43.6876	1.56907
-0.619159	217.533	2.01431	50.2603	0.4654
-0.853038	245.949	1.54227	56.8259	0.356338
-1.08424	267.753	1.81564	61.8635	0.419498
-1.31837	292.423	1.59808	67.5636	0.369231
-1.55201	307.661	1.63186	71.0841	0.377037
-1.77289	319.746	1.66883	73.8764	0.385577
-1.99727	322.437	1.54724	74.4981	0.357484
-2.22813	320.221	1.99799	73.9861	0.461631
-2.45225	318.433	2.19751	73.5731	0.507729
-2.67086	315.69	2.26933	72.9392	0.524323
-2.89802	324.553	2.43225	74.987	0.561963
-3.11382	334.052	2.0828	77.1818	0.481224
-3.34251	348.706	2.42558	80.5675	0.560424
-3.56111	366.879	2.2675	84.7664	0.523899
-3.78375	393.422	2.58956	90.8989	0.598311
-4.01835	422.399	2.61803	97.5941	0.604887
-4.26146	454.409	2.36254	104.99	0.545857
-4.49567	482.684	2.52606	111.523	0.583638
-4.72101	514.359	2.51107	118.841	0.580175
-4.95239	553.32	2.84954	127.843	0.658379
-5.18572	587.835	2.8016	135.818	0.647301
-5.41562	622.624	4.14886	143.855	0.958581
-5.6532	660.945	3.29394	152.709	0.761056
-5.8856	691.739	2.52452	159.824	0.583283
-6.11819	728.807	3.13888	168.389	0.725228
-6.34809	765.03	4.32845	176.758	1.00007
-6.57795	799.761	3.93651	184.782	0.90952
-6.81032	838.628	2.63956	193.763	0.609863
-7.04589	875.05	2.38448	202.178	0.550927
-7.26852	912.361	2.94779	210.798	0.681077
-7.50739	948.881	3.0621	219.236	0.70749
-7.74674	988.285	3.1838	228.34	0.735608
-7.97406	1024.31	3.33603	236.664	0.770779
-8.20674	1059.67	3.14177	244.833	0.725896
-8.4298	1094.13	3.79505	252.794	0.876834
-8.64396	1126.64	3.72941	260.307	0.861669
-8.86003	1165.2	2.23025	269.215	0.515294
-8.92618	1172.58	4.15746	270.92	0.960569
-8.70687	1140.26	2.97855	263.454	0.688184
-8.49206	1103.65	3.45644	254.994	0.798599
-8.27239	1064.89	3.49574	246.04	0.80768
-8.03258	1029.63	3.34964	237.892	0.773925
-7.7867	996.427	4.05507	230.221	0.936913
-7.5563	954.083	3.30155	220.438	0.762813
-7.3132	918.099	2.17196	212.124	0.501826
-7.0726	881.809	2.8878	203.739	0.667218
-6.842	843.766	2.77684	194.95	0.641581
-6.60462	802.82	2.89464	185.489	0.668798
-6.3723	771.962	3.37957	178.36	0.780839
-6.13213	730.092	2.53501	168.685	0.585707
-5.89804	697.406	4.76423	161.134	1.10076
-5.66241	657.838	3.11439	151.991	0.71957
-5.42479	622.891	4.07084	143.917	0.940555
-5.1812	582.293	2.17145	134.537	0.501706
-4.95336	549.15	2.86314	126.879	0.661521
-4.71896	511.021	2.76769	118.07	0.639466
-4.48687	474.762	2.87374	109.692	0.663968
-4.25471	441.264	2.74656	101.953	0.634585
-4.02411	403.55	2.66155	93.239	0.614943
-3.79819	367.096	2.29271	84.8164	0.529723
-3.56313	333.052	2.58155	76.9508	0.596459
-3.34052	299.838	2.9958	69.2766	0.692171
-3.10437	266.018	2.01523	61.4628	0.465613
-2.87406	231.499	2.42972	53.4871	0.561379
-2.65163	194.997	2.36797	45.0535	0.547112
-2.42453	161.004	2.04401	37.1995	0.472262
-2.18688	126.717	1.84472	29.2775	0.426216
-1.963525	93.6412	1.85618	21.6355	0.428865
-1.73865	61.0294	1.73078	14.1007	0.399891
-1.51828	29.0844	1.68687	6.71986	0.389746
-1.28963	-5.23199	1.63578	-1.20884	0.377942
-1.05429	-38.6336	1.96638	-8.92617	0.454326
-0.83732	-68.3793	1.65682	-15.7988	0.382803
-0.620651	-96.3634	1.40234	-22.2645	0.324006
-0.399967	-123.012	1.47535	-28.4215	0.340875
-0.17555	-142.692	1.41119	-32.9685	0.326052
0.0426234	-161.072	1.4776	-37.2152	0.341394
0.258749	-180.731	1.44786	-41.7574	0.334523
0.480828	-200.68	1.51237	-46.3666	0.349429
0.702245	-225.644	1.36007	-52.1344	0.31424
0.924937	-251.556	1.68918	-58.1213	0.390281
1.15257	-274.309	1.70733	-63.3782	0.394473
1.37699	-294.176	1.56267	-67.9685	0.361049
1.60412	-309.118	1.47403	-71.4208	0.34057
1.82725	-316.928	1.66696	-73.2252	0.385146
2.0546	-322.017	1.85057	-74.401	0.427569
2.28429	-316.625	1.83319	-73.1552	0.423553
2.50989	-315.783	2.62162	-72.9607	0.605718
2.74584	-317.03	2.6198	-73.2488	0.605297
2.97294	-325.079	1.94088	-75.1085	0.448435
3.20781	-334.307	2.48421	-77.2406	0.573969
3.43369	-354.325	2.68741	-81.8657	0.620917
3.66012	-378.071	2.46365	-87.3522	0.569218
3.88298	-403.85	2.45275	-93.3084	0.566702
4.12061	-431.361	2.75552	-99.6647	0.636656
4.34621	-464.538	2.77727	-107.33	0.641681
4.57264	-494.556	3.00335	-114.266	0.693915
4.81033	-530.76	2.81619	-122.631	0.650672
5.04367	-562.054	3.3594	-129.861	0.77618
5.28156	-600.273	4.61493	-138.691	1.06627
5.52093	-636.837	3.60619	-147.139	0.833199
5.74581	-671.73	2.49668	-155.201	0.576852
5.98295	-708.764	2.48758	-163.758	0.574749
6.21185	-745.326	3.85939	-172.205	0.891699
6.44231	-780.528	3.74273	-180.339	0.864747
6.67565	-810.357	3.55458	-187.231	0.821276
6.89435	-851.976	3.92898	-196.847	0.907779
7.11221	-887.243	4.54437	-204.995	1.04996
7.34488	-921.53	3.87258	-212.917	0.894749
7.58078	-957.471	3.25651	-221.221	0.752407
7.80994	-993.61	3.29014	-229.571	0.760178
8.02991	-1031.37	2.89949	-238.294	0.669919
8.25554	-1067.9	3.4538	-246.735	0.797991
8.47623	-1102.45	4.66975	-254.719	1.07893
8.68688	-1137.99	3.4641	-262.928	0.80037
8.90028	-1163.95	3.32315	-268.928	0.767803
8.897	-1168.3	3.09217	-269.933	0.714437
8.6846	-1134.15	3.98219	-262.042	0.920074
8.47041	-1098.18	4.19955	-253.732	0.970293
8.24796	-1061.03	3.49601	-245.148	0.807743
8.01228	-1028.7	3.30847	-237.678	0.764412
7.78112	-989.455	3.95976	-228.611	0.914891
7.55891	-956.297	3.61621	-220.95	0.835514
7.31875	-913.816	2.88063	-211.135	0.66556
7.0801	-878.208	3.41987	-202.907	0.790152
6.84573	-838.92	2.76251	-193.83	0.638269
6.61077	-805.654	2.92006	-186.144	0.674672
6.37814	-764.385	3.33188	-176.609	0.769821
6.13692	-727.636	2.98189	-168.118	0.688957
5.9093	-690.98	3.29433	-159.649	0.761145
5.6779	-657.441	2.99575	-151.9	0.692159
5.44852	-619.924	3.50954	-143.231	0.81087
5.21613	-586.506	2.98714	-135.51	0.69017
4.98452	-550.831	3.06103	-127.268	0.707241
4.7581	-517.151	3.10676	-119.486	0.717808
4.52951	-480.362	2.47207	-110.986	0.571165
4.29981	-443.433	3.32317	-102.454	0.767808
4.07395	-411.023	2.34547	-94.9656	0.541914
3.84654	-374.695	2.9203	-86.5721	0.674726
3.60495	-335.044	2.34404	-77.4109	0.541583
3.38056	-303.61	2.57132	-70.1483	0.594097
3.14547	-269.265	2.62763	-62.213	0.607106
2.92508	-234.388	2.2351	-54.1547	0.516414
2.68994	-199.647	2.22777	-46.1279	0.514719
2.45704	-164.095	1.97185	-37.9137	0.455589
2.22938	-130.618	1.8654	-30.179	0.430994
2.00427	-97.1107	2.06168	-22.4371	0.476346
1.77041	-64.3103	1.74886	-14.8587	0.404069
1.5453	-32.6748	1.53633	-7.54941	0.354964
1.31566	2.50893	1.75997	0.579681	0.406637
1.09228	34.6465	1.65194	8.00498	0.381676
0.868857	65.1437	1.54071	15.0512	0.355978
0.646744	94.2848	1.29273	21.7842	0.298681
0.422559	121.184	1.19641	27.9993	0.276426
0.201118	143.663	1.50074	33.1928	0.346742
2.28357e-05	162.996	1.31651	37.6597	0.304176

File: AH11_FCw_LangevinSAXSscaled.xye
#Executed at: 2018-11-15 15:45:37.0969
#Loaded File	 = ../rawdata/DD226_2_FCW_100OE.DAT
#Rescale Factor	 = 4.32812
#[[Data]]
#T/K	M/kAm-1	sM/kAm-1	M_raw/memu	sM_raw/memu
10.0041	43.0572	1.12369	9.94823	0.259626
11.0462	43.1899	1.60478	9.97891	0.37078
12.5181	45.1428	1.66458	10.4301	0.384597
14.0586	43.1809	1.1598	9.97682	0.267968
15.5586	43.6175	1.37785	10.0777	0.318347
17.0206	44.4683	1.22555	10.2743	0.28316
18.5125	42.2907	1.22506	9.77115	0.283046
20.0105	43.0756	1.41591	9.9525	0.327141
22.0378	44.207	1.25492	10.2139	0.289946
23.5474	43.9808	1.49055	10.1616	0.344388
25.0225	44.2715	1.57695	10.2288	0.364349
26.5436	43.7327	1.47329	10.1043	0.340399
28.0645	44.0981	1.61	10.1887	0.371987
29.5211	42.8287	1.67374	9.89544	0.386712
31.6379	43.237	1.68329	9.98977	0.388919
33.0262	41.9732	1.63614	9.69779	0.378024
34.5596	44.7889	1.44097	10.3483	0.332932
36.0109	42.6982	1.35065	9.86528	0.312063
37.5307	43.9379	1.51326	10.1517	0.349635
39.0156	43.1589	1.44343	9.97174	0.3335
40.5421	42.4899	1.35419	9.81717	0.312882
42.5172	43.1065	1.19328	9.95963	0.275703
44.009	43.5405	1.29195	10.0599	0.298502
45.5218	43.8424	1.49433	10.1296	0.34526
47.0025	42.2699	1.34583	9.76634	0.31095
48.5424	43.9724	1.42306	10.1597	0.328793
50.0231	42.4005	1.61706	9.79651	0.373618
51.5346	42.5008	1.60431	9.81968	0.370671
53.5042	43.392	1.5076	10.0256	0.348327
55.0007	41.9578	1.47462	9.69422	0.340706
56.5031	42.1176	1.38968	9.73115	0.321081
58.0191	43.3132	1.38754	10.0074	0.320587
59.5078	43.2121	1.54193	9.98403	0.356258
61.0343	42.2968	1.34007	9.77255	0.30962
62.9788	44.7856	1.56389	10.3476	0.361333
64.063	42.0716	1.50426	9.72053	0.347555
65.5256	42.3343	1.52423	9.78122	0.352168
67.0207	42.4576	1.82549	9.8097	0.421775
68.5009	42.4601	1.39902	9.81027	0.323239
70.0399	43.3963	1.40979	10.0266	0.325727
71.5141	42.6987	1.64271	9.86541	0.379543
73.3679	42.8427	1.26222	9.89868	0.291633
74.5572	44.3083	1.28296	10.2373	0.296423
76.019	43.5254	1.40247	10.0564	0.324037
77.5121	43.3909	1.46963	10.0253	0.339553
79.0397	42.8126	1.61589	9.89173	0.373347
80.515	42.8243	1.42593	9.89443	0.329457
82.0313	43.9222	1.08924	10.1481	0.251666
84.0387	43.7088	1.11646	10.0988	0.257955
85.5394	44.3015	1.25538	10.2357	0.290053
87.0317	43.7831	1.3911	10.116	0.321409
88.5002	44.1771	1.49626	10.207	0.345705
90.0413	43.9225	1.51023	10.1482	0.348934
91.6192	43.7616	1.42855	10.111	0.330063
93.0558	44.4777	1.38145	10.2764	0.319179
95.0371	43.749	1.57233	10.1081	0.363283
96.5285	42.936	1.28895	9.92024	0.297809
98.0282	42.8678	1.6821	9.90447	0.388644
99.5501	42.1035	1.40265	9.72788	0.324078
101.024	43.6555	1.45791	10.0865	0.336846
102.546	43.0096	1.44962	9.93724	0.334931
104.721	43.0392	1.28129	9.94407	0.296038
106.018	42.3892	1.23759	9.7939	0.285941
107.517	42.3876	1.17988	9.79352	0.272607
109.024	43.6126	1.40531	10.0766	0.324692
110.539	42.556	1.27994	9.83245	0.295727
112.02	43.9561	1.27086	10.1559	0.293629
113.515	44.1655	1.55588	10.2043	0.359481
115.559	43.2628	1.4506	9.99575	0.335156
117.045	42.1621	1.31252	9.74142	0.303253
118.514	43.0999	1.52119	9.9581	0.351467
120.045	42.4311	1.11346	9.80359	0.257261
121.52	43.1328	1.36713	9.9657	0.315872
123.06	41.428	1.37199	9.57182	0.316995
124.533	42.8227	1.46991	9.89405	0.339619
126.508	43.8606	1.26942	10.1339	0.293296
128.054	42.0323	1.59567	9.71144	0.368674
129.524	42.403	1.40337	9.79708	0.324245
131.012	41.9632	1.44831	9.69548	0.334627
132.552	42.4331	1.44359	9.80404	0.333537
134.053	41.1511	1.42149	9.50783	0.328431
135.96	42.7303	1.31152	9.87271	0.303022
137.055	41.6266	1.41465	9.61769	0.32685
138.504	40.9107	1.29047	9.45229	0.29816
140.059	41.0854	1.81259	9.49266	0.418794
141.538	41.2278	1.51101	9.52556	0.349114
143.028	41.897	1.48433	9.68017	0.342951
144.542	42.9058	1.37486	9.91327	0.317657
146.417	43.1473	1.65703	9.96905	0.382852
147.516	42.1708	1.68062	9.74343	0.388303
149.013	41.661	1.61058	9.62565	0.37212
150.561	43.3019	1.62193	10.0048	0.374742
152.018	42.8917	1.76048	9.90999	0.406754
153.559	41.5707	1.14718	9.60479	0.265053
155.057	41.703	1.32384	9.63536	0.305869
156.844	41.8904	1.48478	9.67866	0.343053
158.04	42.612	1.36958	9.84538	0.316437
159.538	42.7199	1.59596	9.8703	0.368742
161.004	42.4253	1.64315	9.80224	0.379645
162.513	41.8503	1.51998	9.66939	0.351187
164.032	42.8485	1.42437	9.90001	0.329096
165.512	42.7551	1.41846	9.87843	0.327732
167.54	41.2698	1.50599	9.53526	0.347954
169.065	42.2987	1.58235	9.77299	0.365597
170.555	43.6857	1.75008	10.0935	0.404351
172.004	41.9985	1.46737	9.70363	0.339031
173.534	42.5118	1.67487	9.82222	0.386974
175.047	41.8716	1.72731	9.67431	0.39909
176.528	42.1139	1.20667	9.73029	0.278799
178.521	42.1621	1.72816	9.74143	0.399287
180.023	42.517	1.66383	9.82342	0.384422
181.501	43.0954	1.77007	9.95706	0.40897
183.013	43.0719	1.75062	9.95163	0.404475
184.558	40.7895	1.42463	9.42429	0.329156
186.061	42.0761	1.4268	9.72156	0.329658
188.104	40.3562	1.56098	9.32417	0.36066
189.547	40.784	1.25338	9.42302	0.289589
191.025	42.8511	1.27581	9.90062	0.294771
192.519	42.9633	1.56336	9.92654	0.361209
194.034	42.1503	1.59127	9.73869	0.367658
195.547	43.5899	1.55312	10.0713	0.358845
197.024	42.5622	1.46572	9.83387	0.338651
199.017	43.6905	1.84344	10.0946	0.425921
200.512	41.6525	1.43009	9.62368	0.330418
202.034	40.4734	1.34933	9.35127	0.311759
203.525	42.7089	1.69413	9.86777	0.391424
205.012	43.931	1.47849	10.1501	0.341601
206.52	41.7704	1.67972	9.65092	0.388094
208.045	41.3714	1.60874	9.55874	0.371695
209.51	41.6758	1.6216	9.62907	0.374666
211.019	41.5338	1.35157	9.59627	0.312276
212.562	40.3367	1.84688	9.31966	0.426715
214.013	41.5847	1.58848	9.60801	0.367014
215.525	43.3712	1.64427	10.0208	0.379903
217.065	42.468	1.43647	9.81212	0.331892
218.531	43.4147	1.72588	10.0308	0.398759
220.005	40.7083	1.51882	9.40554	0.350918
221.537	41.1526	1.48426	9.50818	0.342934
223.023	40.2607	1.79558	9.30211	0.414862
224.552	40.1853	1.59552	9.2847	0.36864
226.063	42.1402	1.671	9.73637	0.38608
227.56	40.9053	1.63214	9.45105	0.377102
229.016	41.0262	1.35497	9.47897	0.313061
230.553	41.4552	1.73242	9.57811	0.40027
232.051	41.0742	1.65607	9.49007	0.38263
233.513	41.0264	1.70112	9.47903	0.393038
235.019	40.5812	1.57106	9.37617	0.362989
236.513	41.9919	1.77109	9.70211	0.409206
238.045	39.8696	1.59914	9.21175	0.369478
240.276	40.3607	1.54348	9.32522	0.356615
241.531	37.7251	1.87735	8.71626	0.433755
243.026	40.266	1.76147	9.30334	0.406983
244.513	42.0816	1.86002	9.72283	0.429751
246.008	41.221	1.788	9.524	0.413113
247.522	39.1187	1.57308	9.03825	0.363456
249.053	41.0425	1.84491	9.48274	0.426261
251.027	38.6957	1.70373	8.94053	0.393641
252.506	40.5269	1.67207	9.36362	0.386327
254.052	40.0069	1.59792	9.24347	0.369195
255.527	39.0132	1.64414	9.01389	0.379874
257.037	38.6054	1.78107	8.91966	0.41151
258.505	37.9	1.86769	8.75667	0.431525
260.001	40.1329	1.75656	9.27258	0.405848
262.021	38.4851	1.37459	8.89186	0.317595
263.504	38.4261	1.80848	8.87824	0.417843
265.035	36.8878	1.71391	8.52281	0.395995
266.519	38.1958	1.51139	8.82503	0.349203
268.007	40.001	1.43856	9.24211	0.332375
269.535	36.8279	1.92807	8.50898	0.445476
271.567	38.5044	1.93036	8.89633	0.446003
273.017	39.6462	1.72961	9.16013	0.399622
274.558	39.1327	2.3603	9.04148	0.54534
276.019	39.3268	1.70164	9.08634	0.393159
277.538	38.3233	1.98421	8.85449	0.458445
279.059	36.597	2.1471	8.45562	0.49608
280.517	37.7146	1.95475	8.71384	0.451639
282.057	37.5451	1.83064	8.67469	0.422964
283.518	35.7952	1.94827	8.27038	0.450141
285.001	37.1378	1.65199	8.58057	0.381688
286.519	35.1853	1.57294	8.12947	0.363423
288.005	36.0323	1.83321	8.32515	0.423558
289.546	32.6436	2.11279	7.54221	0.488155
291.017	37.2594	1.51086	8.60868	0.34908
292.515	35.5912	1.80514	8.22325	0.417073
294.05	34.2036	1.6221	7.90265	0.374781
295.55	35.712	2.29477	8.25116	0.530199
297.063	34.5544	1.48151	7.98369	0.342299
298.545	34.5649	1.92646	7.98611	0.445103
300.003	34.1087	1.87545	7.8807	0.433317
301.525	37.0707	1.79672	8.56508	0.415128
303.528	35.326	1.79817	8.16197	0.415462
305.047	35.1009	1.9	8.10997	0.43899
306.504	33.3132	1.85355	7.69691	0.428256
308.001	33.9735	2.033	7.84947	0.469718
309.545	31.8002	1.85255	7.34734	0.428025
311.017	31.6202	2.18204	7.30575	0.504155
313.187	33.625	1.74839	7.76896	0.40396
314.518	31.8353	2.0867	7.35545	0.482126
316.041	32.0875	1.73214	7.41372	0.400206
317.525	35.6989	1.83833	8.24813	0.424741
319.072	31.3388	1.75257	7.24073	0.404925
320.533	32.0581	1.77201	7.40694	0.409417
322.013	32.6577	1.9255	7.54547	0.44488
324.008	32.5377	1.82719	7.51775	0.422167
325.534	32.4882	2.05917	7.5063	0.475765
327.061	32.8552	1.8273	7.59109	0.422191
328.503	33.4485	1.99657	7.72818	0.461301
330.022	30.2435	2.16163	6.98766	0.499437
331.515	31.8557	1.83773	7.36016	0.424602
333.051	31.8402	2.08243	7.35659	0.48114
335.026	28.6604	1.91843	6.62191	0.443249
336.505	29.8114	1.62057	6.88784	0.374427
338.013	31.0652	2.03319	7.17753	0.469763
339.515	29.2562	1.52244	6.75956	0.351755
341.035	31.385	2.04819	7.25142	0.473229
342.516	27.7364	1.64757	6.40842	0.380665
344.394	27.1843	2.09893	6.28086	0.484952
345.514	31.0697	2.18352	7.17856	0.504497
347.005	26.8407	1.77316	6.20147	0.409683
348.554	28.2746	1.66442	6.53277	0.38456
349.758	28.1888	2.06322	6.51293	0.4767