Folder: PhDThesis/data/monolayers/nanoparticles/Ac_CoFe_C/vsm/rescale (part 2)

File: AH11_LangevinSAXSscaled.xye
#Executed at: 2018-11-15 15:44:42.7018
#Loaded File	 = ../rawdata/DD226_2_HYST_350K_REPEAT.DAT
#particle info	 = Superball Model, r = 46.9421 A, p = 2.65743
#fit report	 = [[Fit Statistics]]
#    # fitting method   = leastsq
#    # function evals   = 25
#    # data points      = 579
#    # variables        = 3
#    chi-square         = 2874.57
#    reduced chi-square = 4.99058
#    Akaike info crit   = 933.765
#    Bayesian info crit = 946.849
#[[Variables]]
#    Ms:     35.0183 +/- 0.21624 (0.62%) (init = 43)
#    mu:     11886.5 +/- 236.284 (1.99%) (init = 11000)
#    chi:   -31.2896 +/- 0.16662 (0.53%) (init = -34)
#    sigMu:  0.357 (fixed)
#    T:      350 (fixed)
#[[Correlations]] (unreported correlations are < 0.100)
#    C(Ms, chi) = -0.921
#    C(Ms, mu)  = -0.805
#    C(mu, chi) =  0.673
#Ms Should	 = 151.564 kA/m
#Rescale Factor	 = 4.32812
#[[Data]]
#B/T	M/kAm-1	sM/kAm-1	M_raw/memu	sM_raw/memu
1.98997	-122.356	5.21487	-28.27	1.20488
1.95823	-126.096	4.23024	-29.1342	0.977385
1.92524	-118.939	3.09757	-27.4806	0.715683
1.89505	-111.758	3.62322	-25.8215	0.837133
1.86057	-110.865	3.62563	-25.6149	0.837691
1.82632	-104.079	3.95526	-24.0471	0.91385
1.79634	-97.4608	4.08495	-22.518	0.943815
1.76486	-93.2821	3.15395	-21.5525	0.728712
1.73335	-90.7657	3.80384	-20.9711	0.878865
1.70286	-84.003	3.59369	-19.4086	0.830312
1.67289	-80.3487	4.25845	-18.5643	0.983903
1.64491	-77.5047	3.97411	-17.9072	0.918206
1.61018	-71.3746	2.58243	-16.4909	0.596663
1.58147	-66.9906	2.95725	-15.478	0.683265
1.55074	-62.1674	2.81646	-14.3636	0.650736
1.5155	-59.4145	3.25064	-13.7275	0.751051
1.48127	-54.3458	3.42538	-12.5564	0.791424
1.45003	-47.8503	2.95894	-11.0557	0.683654
1.41982	-47.173	3.70207	-10.8992	0.855353
1.38256	-38.2253	3.17228	-8.83184	0.732946
1.35284	-34.0007	2.96839	-7.85575	0.685837
1.32084	-30.6517	3.48295	-7.08198	0.804725
1.28834	-24.5819	2.92354	-5.67956	0.675475
1.25435	-21.9251	3.0968	-5.06574	0.715506
1.22139	-17.0174	3.50289	-3.93182	0.809331
1.19443	-10.7597	2.66054	-2.48599	0.614709
1.16068	-9.05157	2.51883	-2.09134	0.581969
1.12845	-2.32744	2.69689	-0.537747	0.623109
1.09496	1.58401	2.35222	0.365981	0.543472
1.06497	4.6614	2.81363	1.077	0.650082
1.03526	9.31156	2.70571	2.15141	0.625147
0.999764	13.5676	2.7962	3.13475	0.646053
0.967526	18.2305	2.64516	4.21211	0.611156
0.9358125	21.5797	2.51466	4.98593	0.581006
0.905072	25.6427	3.26828	5.92468	0.755127
0.874278	30.9512	2.64462	7.15118	0.611031
0.839315	37.2198	2.84859	8.59953	0.658157
0.807305	39.5813	2.67323	9.14513	0.617641
0.780849	45.5089	2.58878	10.5147	0.598129
0.748102	47.8178	2.12418	11.0482	0.490785
0.710116	53.679	2.7009	12.4024	0.624034
0.676385	55.108	2.54991	12.7325	0.589149
0.647151	60.0274	2.74666	13.8692	0.634608
0.615431	62.4805	3.02624	14.4359	0.699203
0.584696	65.5739	2.01432	15.1506	0.465402
0.552493	72.6553	2.40766	16.7868	0.556284
0.523229	73.8074	2.80221	17.053	0.647441
0.49147	75.8021	2.54953	17.5139	0.589061
0.460513	77.1589	2.51115	17.8273	0.580194
0.429477	79.3889	2.43986	18.3426	0.563722
0.393979	83.6514	2.03745	19.3274	0.470748
0.362748	83.3277	2.7268	19.2526	0.63002
0.33129	85.6938	2.78915	19.7993	0.644425
0.300794	87.5344	1.85954	20.2246	0.429641
0.268044	88.1676	2.11696	20.3709	0.489117
0.237056	90.2038	1.93032	20.8413	0.445995
0.206333	84.1571	2.46727	19.4442	0.570055
0.174597	81.6833	2.41388	18.8727	0.55772
0.148305	83.8974	1.96703	19.3843	0.454477
0.11558	79.0257	1.76962	18.2586	0.408864
0.0813378	77.7119	1.78961	17.9551	0.413484
0.0523387	68.106	2.28918	15.7357	0.528907
0.0188501	40.9599	1.97776	9.46367	0.456955
-0.00864722	-13.2334	1.78089	-3.05755	0.411468
-0.039824	-55.3119	2.3419	-12.7796	0.54109
-0.0695145	-71.067	2.11182	-16.4198	0.48793
-0.0986974	-76.0651	2.12031	-17.5746	0.489892
-0.128612	-82.0049	2.03015	-18.947	0.469061
-0.161495	-79.8513	2.42467	-18.4494	0.560213
-0.190424	-85.5272	2.13177	-19.7608	0.492539
-0.224308	-83.0634	2.18819	-19.1915	0.505576
-0.254016	-85.2353	2.0244	-19.6934	0.467733
-0.284461	-84.0062	2.33565	-19.4094	0.539645
-0.316182	-83.6626	2.35621	-19.33	0.544396
-0.346198	-83.0021	2.44287	-19.1774	0.564417
-0.377722	-81.4134	1.8367	-18.8103	0.424365
-0.410022	-79.4619	2.23548	-18.3594	0.516502
-0.44079	-78.8492	2.22236	-18.2179	0.513469
-0.474066	-75.0204	2.10471	-17.3332	0.486287
-0.50455	-72.7818	2.539	-16.816	0.586628
-0.534548	-71.1472	2.10176	-16.4383	0.485605
-0.566267	-64.867	2.15044	-14.9873	0.496852
-0.595517	-65.0399	2.13778	-15.0273	0.493928
-0.625736	-57.9627	2.79219	-13.3921	0.645128
-0.658494	-57.3507	2.66086	-13.2507	0.614784
-0.690965	-51.9976	2.98997	-12.0139	0.690823
-0.722208	-52.2231	2.56294	-12.066	0.592159
-0.752448	-44.8257	2.78582	-10.3568	0.643655
-0.783192	-41.1906	3.37692	-9.51696	0.780228
-0.818171	-37.5166	2.53728	-8.66811	0.586231
-0.849422	-33.2212	3.34393	-7.67566	0.772605
-0.883878	-29.3949	2.63501	-6.7916	0.608812
-0.916184	-27.6522	3.54052	-6.38895	0.818026
-0.947435	-21.3157	2.88867	-4.92493	0.667417
-0.979402	-17.6679	4.38259	-4.08212	1.01258
-1.01037	-13.0406	3.70775	-3.013	0.856664
-1.04061	-5.68378	3.18105	-1.31322	0.734973
-1.07734	-1.88043	3.03216	-0.434468	0.700571
-1.10859	2.20326	2.44205	0.509056	0.564227
-1.13908	4.49242	3.57817	1.03796	0.826725
-1.17303	7.97012	2.98812	1.84147	0.690395
-1.20425	10.4505	3.84388	2.41455	0.888118
-1.23597	19.6672	2.93509	4.54405	0.678144
-1.26622	25.466	3.01695	5.88384	0.697057
-1.29872	29.1432	4.2171	6.73346	0.974348
-1.32947	32.5824	2.38055	7.52806	0.550019
-1.36074	35.3301	2.80892	8.16292	0.648993
-1.39448	40.2772	3.19652	9.30594	0.738546
-1.42874	48.9928	2.71971	11.3196	0.628381
-1.46343	48.5916	4.20917	11.2269	0.972516
-1.49864	57.5818	3.39606	13.3041	0.784649
-1.53016	58.7264	3.13609	13.5686	0.724583
-1.55939	65.5413	3.83693	15.1431	0.886511
-1.59362	69.9523	2.72415	16.1623	0.629406
-1.62656	76.7385	4.56093	17.7302	1.05379
-1.65504	79.2475	3.74274	18.3099	0.86475
-1.68802	87.4812	5.38204	20.2123	1.2435
-1.72076	92.4747	3.3347	21.366	0.770473
-1.75149	91.6338	4.02833	21.1717	0.930734
-1.78697	97.5753	4.83057	22.5445	1.11609
-1.81971	104.337	4.20341	24.1068	0.971186
-1.85346	110.023	3.92096	25.4204	0.905926
-1.88497	113.137	4.49912	26.1399	1.03951
-1.91967	118.347	4.23293	27.3438	0.978005
-1.94887	123.988	5.57026	28.6471	1.28699
-1.98158	127.146	4.62954	29.3767	1.06964
-1.98076	129.819	3.12468	29.9942	0.721948
-1.94852	127.85	3.46109	29.5393	0.799673
-1.91505	119.384	3.56628	27.5834	0.823979
-1.88083	115.706	4.06975	26.7335	0.940303
-1.85035	109.54	3.11576	25.3089	0.719887
-1.81862	106.616	4.06876	24.6333	0.940075
-1.78262	100.14	4.61938	23.137	1.06729
-1.74814	95.4504	3.08542	22.0535	0.712878
-1.71417	86.5282	4.00581	19.9921	0.925531
-1.68218	87.4844	3.84917	20.213	0.889339
-1.64819	81.135	3.60071	18.746	0.831932
-1.61546	74.7707	3.13616	17.2755	0.724601
-1.58099	69.2167	3.76658	15.9923	0.870258
-1.54928	63.8845	2.71931	14.7603	0.628289
-1.51704	59.3705	3.26993	13.7174	0.755508
-1.48404	54.7182	2.85518	12.6425	0.65968
-1.45356	49.7036	2.76749	11.4839	0.639421
-1.41462	47.0066	3.26497	10.8607	0.754361
-1.37788	38.6519	3.25101	8.93042	0.751137
-1.34539	32.003	3.16828	7.39419	0.732022
-1.31288	30.7217	3.82391	7.09815	0.883503
-1.28011	27.98	3.07755	6.46469	0.711059
-1.24765	21.6867	2.7473	5.01065	0.634756
-1.21643	16.1578	3.00116	3.73322	0.69341
-1.18419	12.9191	3.42371	2.98492	0.791038
-1.15019	8.3916	2.27805	1.93885	0.526337
-1.11297	6.17836	2.47955	1.42749	0.572894
-1.07775	-2.74424	2.4611	-0.634048	0.56863
-1.04548	-9.80983	2.57002	-2.26653	0.593796
-1.01527	-15.9083	2.33834	-3.67557	0.540267
-0.97882	-17.7191	2.79862	-4.09395	0.646612
-0.945068	-19.406	2.98485	-4.4837	0.689642
-0.912826	-27.3876	3.28154	-6.32782	0.75819
-0.875277	-29.5766	2.8558	-6.83359	0.659824
-0.844543	-34.4649	3.23582	-7.96302	0.747626
-0.812583	-39.0947	2.60251	-9.03271	0.601302
-0.776838	-44.8184	2.64551	-10.3552	0.611237
-0.745091	-47.9638	2.88452	-11.0819	0.666459
-0.714125	-51.4527	2.48596	-11.888	0.574374
-0.682868	-56.6414	2.46331	-13.0868	0.569139
-0.644644	-57.7959	2.90098	-13.3536	0.670262
-0.614389	-64.3425	2.84699	-14.8661	0.657788
-0.583142	-64.4568	2.16878	-14.8926	0.50109
-0.553939	-67.4097	2.33349	-15.5748	0.539147
-0.522214	-71.4588	2.32327	-16.5104	0.536784
-0.485716	-75.0618	2.56861	-17.3428	0.59347
-0.456242	-77.7636	2.19966	-17.9671	0.508224
-0.42396	-78.7875	2.36394	-18.2036	0.546181
-0.390985	-81.8746	2.02881	-18.9169	0.468751
-0.355207	-82.6129	2.22408	-19.0875	0.513867
-0.32076	-83.0501	2.11866	-19.1885	0.48951
-0.288007	-84.9124	2.22825	-19.6188	0.51483
-0.256275	-89.6429	2.11411	-20.7117	0.488458
-0.225769	-86.7009	1.81562	-20.032	0.419493
-0.193038	-87.0445	1.84503	-20.1114	0.42629
-0.161763	-83.9192	2.68219	-19.3893	0.619711
-0.133001	-82.524	2.31936	-19.0669	0.53588
-0.101547	-80.7164	2.34881	-18.6493	0.542685
-0.0730375	-73.9098	1.47823	-17.0766	0.34154
-0.0390353	-61.5714	2.38659	-14.2259	0.551415
-0.00605866	-17.9506	2.52634	-4.14743	0.583704
0.0256743	46.2328	2.20219	10.682	0.508809
0.0548805	66.9934	1.69397	15.4786	0.391387
0.0865491	76.2779	1.87113	17.6238	0.43232
0.120667	77.8583	1.92513	17.9889	0.444796
0.150808	83.7074	1.96866	19.3403	0.454852
0.182749	86.6924	1.71655	20.03	0.396604
0.202949	88.1084	1.98448	20.3572	0.458507