Folder: PhDThesis/data/monolayers/nanoparticles/Ac_CoFe_C/vsm/ZFCFC

Note: README.md
# PhDThesis

Color palette:
- #0EA8DF #MatNat Blau
- #EE292F #Medizin Rot
- #FAAB2D #HumWis Orange
- #76C152 #Wiwi Gruen
- #7F0128 #Rechtswis Bordeaux
- #793394 #Philo Violett

Sample Translation
- Ol-CoFe-C : DD67
- Ac-CoFe-C : AH11
- Ac-CoFe-C-YF : YF45

File: AH11_ZFC_LangevinSAXSscaled.xye
#Executed at: 2018-11-12 20:26:18.6258
#Loaded File	 = ../rawdata/DD226_1_ZFCW_100OE.DAT
#Rescale Factor	 = 0.208643
#[[Data]]
#T/K	M/kAm-1	sM/kAm-1	M_raw/memu	sM_raw/memu
10.0033	0.0865317	0.0524255	0.414735	0.251269
11.0314	-0.0195792	0.0593196	-0.0938405	0.284311
12.5033	0.0818073	0.0579437	0.392092	0.277717
14.045	0.135732	0.0602393	0.650548	0.288719
15.509	0.00340994	0.0565276	0.0163434	0.27093
17.0301	0.0204644	0.0557348	0.0980833	0.26713
18.5062	0.0226942	0.0663476	0.108771	0.317996
20.8699	0.0857209	0.0592948	0.410849	0.284192
22.0211	0.0874004	0.0521049	0.418899	0.249732
23.5564	0.08006	0.0590846	0.383717	0.283185
25.013	0.0401213	0.0593324	0.192296	0.284373
26.5165	0.105315	0.0722108	0.504759	0.346097
28.0144	0.0127843	0.0648785	0.0612737	0.310954
29.5392	0.0628856	0.0633296	0.301402	0.303531
31.5438	0.0699582	0.0528946	0.335301	0.253517
33.0491	0.0875409	0.0671956	0.419572	0.32206
34.5778	0.115861	0.0613116	0.555306	0.293858
36.063	0.0697842	0.0593609	0.334467	0.284509
37.5242	0.099809	0.0666307	0.478372	0.319352
39.0067	0.124909	0.0694612	0.598673	0.332919
40.5502	0.0719305	0.0633636	0.344753	0.303694
42.5465	0.113878	0.0617593	0.545802	0.296004
44.0268	0.111908	0.0606125	0.536362	0.290508
45.5456	0.0965738	0.0571452	0.462866	0.27389
47.0513	0.156799	0.0627229	0.751519	0.300623
48.5546	0.0758375	0.0607045	0.363479	0.290949
50.0309	0.0774144	0.0701613	0.371037	0.336274
52.1485	0.0870825	0.067431	0.417375	0.323188
53.5031	0.10786	0.0536206	0.516961	0.256996
55.011	0.0563185	0.0688414	0.269927	0.329948
56.5333	0.0553548	0.0629424	0.265308	0.301675
58.0477	0.0276021	0.0509435	0.132293	0.244165
59.5407	0.122453	0.0548783	0.586901	0.263025
61.0536	0.106559	0.0626508	0.510726	0.300277
63.0018	0.10724	0.0587273	0.513986	0.281472
64.519	0.126547	0.0647092	0.606522	0.310143
66.045	0.181676	0.0729662	0.870751	0.349718
67.5516	0.156739	0.0579616	0.751232	0.277803
69.0055	0.0863848	0.0606335	0.414031	0.290608
70.534	0.175221	0.0627926	0.83981	0.300957
72.0295	0.144463	0.0662048	0.692393	0.317311
73.5586	0.15829	0.0672497	0.758664	0.322319
75.0495	0.173647	0.0752953	0.832269	0.360881
76.5603	0.117829	0.0574064	0.564741	0.275141
78.0768	0.121558	0.0601175	0.58261	0.288136
79.5095	0.212585	0.0754551	1.01889	0.361647
81.0303	0.206964	0.0568444	0.991953	0.272448
82.5538	0.170383	0.0655177	0.816625	0.314018
84.5173	0.112251	0.0675938	0.538003	0.323969
86.0071	0.207429	0.0655258	0.99418	0.314057
87.5823	0.15083	0.0638981	0.722909	0.306255
89.1601	0.213232	0.0672439	1.02199	0.322291
90.5201	0.166504	0.0620573	0.798033	0.297432
92.0212	0.188727	0.0652796	0.904544	0.312877
94.1082	0.175431	0.0536722	0.840817	0.257244
95.601	0.199549	0.0719793	0.956414	0.344988
97.0899	0.239264	0.0666076	1.14676	0.319241
98.5524	0.233601	0.0856683	1.11962	0.410597
100.01	0.183036	0.0695084	0.877267	0.333145
101.563	0.244541	0.0642605	1.17205	0.307992
103.017	0.296474	0.0727245	1.42096	0.348559
104.549	0.33891	0.0546679	1.62435	0.262016
106.018	0.260823	0.0651374	1.25009	0.312195
107.511	0.301179	0.074167	1.44351	0.355473
109.017	0.31777	0.0636116	1.52303	0.304882
110.529	0.319409	0.0609689	1.53089	0.292216
112.018	0.289936	0.0824655	1.38962	0.395247
113.546	0.335838	0.0711062	1.60963	0.340803
115.507	0.299418	0.059921	1.43507	0.287194
117.03	0.338281	0.0686515	1.62134	0.329038
118.524	0.360019	0.0761636	1.72552	0.365042
120.021	0.354076	0.060616	1.69704	0.290525
121.504	0.453722	0.0627288	2.17463	0.300651
123.059	0.434447	0.0680279	2.08225	0.326049
125.147	0.412796	0.0679538	1.97848	0.325694
126.526	0.486732	0.0720362	2.33284	0.34526
128.044	0.478398	0.055425	2.2929	0.265645
129.515	0.449332	0.0612621	2.15359	0.293621
131	0.527927	0.0561203	2.53029	0.268977
132.572	0.468996	0.0708928	2.24784	0.33978
134.015	0.52385	0.0679157	2.51074	0.325511
136.039	0.536327	0.0632978	2.57054	0.303378
137.528	0.541824	0.0646361	2.59689	0.309792
139.063	0.598633	0.0718337	2.86917	0.34429
140.514	0.640805	0.0726541	3.07129	0.348222
142.013	0.683866	0.0638773	3.27768	0.306155
143.515	0.782104	0.0753991	3.74852	0.361378
145.03	0.652973	0.0783103	3.12961	0.375331
147.011	0.774355	0.0679652	3.71138	0.325748
148.523	0.726393	0.0725643	3.48151	0.347791
150.04	0.770493	0.082136	3.69287	0.393667
151.543	0.821895	0.0682588	3.93924	0.327156
153.024	0.854278	0.0611713	4.09444	0.293186
154.501	0.817429	0.0791009	3.91783	0.379121
156.472	0.905826	0.0761583	4.34151	0.365017
157.524	0.937683	0.0747536	4.49419	0.358285
159.017	1.00915	0.0555183	4.83671	0.266092
160.553	1.00063	0.091236	4.7959	0.437283
162.044	0.92735	0.0680201	4.44467	0.326012
163.536	1.06527	0.071144	5.1057	0.340984
165.03	1.04412	0.0517217	5.00433	0.247895
166.906	1.2474	0.0632066	5.97861	0.302941
168.005	1.1153	0.0787216	5.34547	0.377303
169.538	1.27205	0.0730699	6.09678	0.350215
171.049	1.2758	0.0682361	6.11474	0.327047
172.54	1.33556	0.067383	6.40117	0.322958
174.05	1.38484	0.0534443	6.63738	0.256152
175.559	1.377	0.0683265	6.5998	0.32748
177.52	1.51253	0.0812125	7.24936	0.389241
179.058	1.56681	0.0899016	7.50951	0.430887
180.529	1.65774	0.0910916	7.94535	0.436591
182.002	1.69849	0.0585496	8.14066	0.280621
183.507	1.77496	0.0790377	8.50716	0.378817
185.005	1.94316	0.0818836	9.31329	0.392457
186.526	1.98082	0.0693549	9.49382	0.332409
188.546	2.09272	0.080873	10.0301	0.387614
190.043	2.32564	0.0642928	11.1465	0.308147
191.53	2.25846	0.067289	10.8245	0.322508
193.021	2.40043	0.0708223	11.505	0.339442
194.529	2.5148	0.0705382	12.0531	0.33808
196.017	2.63415	0.0614009	12.6251	0.294287
198.077	2.79897	0.0686005	13.4151	0.328793
199.553	3.04208	0.0802052	14.5803	0.384413
201.011	3.10933	0.0770677	14.9026	0.369376
202.544	3.17175	0.0858781	15.2018	0.411603
204.035	3.35309	0.0766896	16.0709	0.367564
205.503	3.51361	0.0726167	16.8403	0.348043
207.057	3.80265	0.0715352	18.2256	0.342859
209.031	4.0307	0.0853877	19.3186	0.409252
210.502	4.2546	0.076786	20.3918	0.368025
212.036	4.45012	0.0825515	21.3288	0.395659
213.542	4.64001	0.0865055	22.239	0.41461
215.02	4.81306	0.0774415	23.0684	0.371167
216.543	5.09481	0.0653487	24.4188	0.313208
218.048	5.27106	0.0799445	25.2635	0.383164
219.511	5.70066	0.0785457	27.3225	0.376459
221.044	5.92071	0.0851932	28.3772	0.40832
222.531	6.21282	0.0873396	29.7773	0.418608
224.002	6.53987	0.0790015	31.3448	0.378644
225.554	6.83115	0.0726801	32.7408	0.348346
227.028	7.25138	0.0747545	34.7549	0.358289
229.316	7.84099	0.0834058	37.5809	0.399753
230.553	8.00052	0.0809066	38.3455	0.387775
232.01	8.45129	0.0914397	40.506	0.438259
233.569	8.9019	0.082066	42.6657	0.393332
235.068	9.24914	0.0843322	44.33	0.404193
236.569	9.8071	0.0892563	47.0042	0.427794
238.054	10.2283	0.0686811	49.023	0.32918
240.036	10.8622	0.0889299	52.0609	0.42623
241.548	11.5132	0.0772146	55.1814	0.37008
243.013	12.0144	0.0795904	57.5834	0.381466
244.526	12.5914	0.0830084	60.3491	0.397849
246.001	13.1723	0.0735605	63.133	0.352566
247.527	13.8746	0.0842512	66.4993	0.403805
249.019	14.4798	0.0723612	69.3998	0.346818
251.027	15.3462	0.0793393	73.5524	0.380263
252.54	16.0569	0.0789119	76.9588	0.378214
254.011	16.7618	0.0812357	80.3371	0.389352
255.54	17.4884	0.0775591	83.8196	0.371731
257.054	18.2418	0.0880464	87.4304	0.421995
258.528	19.0519	0.083505	91.3134	0.400229
260.564	19.9158	0.0672525	95.4538	0.322333
262.041	20.7818	0.0948402	99.6043	0.454557
263.506	21.462	0.0884516	102.864	0.423937
265.015	22.3672	0.0730755	107.203	0.350241
266.504	23.1466	0.0979159	110.938	0.469298
268.016	24.0098	0.0863886	115.076	0.414049
269.549	24.7114	0.0874865	118.438	0.419312
271.025	25.531	0.0844339	122.367	0.404681
272.508	26.262	0.0877557	125.87	0.420602
274.057	27.0929	0.0928584	129.853	0.445059
275.5	27.742	0.0855515	132.964	0.410038
277.008	28.5169	0.0759582	136.678	0.364058
278.525	29.3466	0.0844396	140.655	0.404708
280.053	30.0104	0.0888808	143.836	0.425994
281.51	30.5117	0.100781	146.239	0.483032
283.001	31.2482	0.0856862	149.769	0.410683
284.505	31.7245	0.0874748	152.051	0.419256
286.018	32.5553	0.0797203	156.033	0.382089
287.522	32.9947	0.0696844	158.139	0.333988
289.009	33.5207	0.0808669	160.66	0.387585
290.567	34.0102	0.0897873	163.006	0.430339
292.555	34.5196	0.0923685	165.448	0.44271
294.062	34.9699	0.0680908	167.606	0.32635
295.52	35.4029	0.10262	169.681	0.491843
297.048	35.6468	0.0880805	170.851	0.422158
298.537	36.0499	0.0915578	172.783	0.438825
300.018	36.2794	0.0901335	173.882	0.431998
302.19	36.3337	0.0775869	174.143	0.371864
303.522	36.6089	0.0924897	175.462	0.443291
305.008	36.7594	0.0931102	176.183	0.446265
306.511	37.0311	0.0829522	177.485	0.397579
308.023	36.9089	0.0966591	176.899	0.463275
309.536	37.0981	0.101726	177.806	0.487561
311.025	37.1968	0.0971061	178.279	0.465417
313.04	37.0866	0.0921465	177.751	0.441646
314.506	37.0785	0.0920133	177.713	0.441008
316.012	36.982	0.0942983	177.25	0.45196
317.544	37.0178	0.0811866	177.421	0.389117
319.027	37.0878	0.0914535	177.757	0.438325
320.517	36.9817	0.0880011	177.249	0.421778
322.031	36.8883	0.0875199	176.801	0.419472
324.001	36.5794	0.114776	175.32	0.550107
325.547	36.3842	0.111388	174.385	0.533868
327.037	36.2689	0.090617	173.832	0.434315
328.51	36.1205	0.105594	173.121	0.506098
330.008	35.9878	0.0790585	172.485	0.378917
331.514	35.8794	0.111988	171.965	0.536743
333.462	35.5079	0.093634	170.185	0.448776
334.5	35.352	0.101161	169.438	0.484854
336.041	35.229	0.105316	168.848	0.504768
337.552	35.0885	0.100392	168.175	0.481165
339.042	34.9351	0.0886716	167.439	0.424992
340.522	34.6167	0.0868827	165.913	0.416417
342.06	34.5233	0.100745	165.466	0.482857
343.912	34.087	0.11724	163.374	0.561918
345.008	33.7768	0.0946419	161.888	0.453606
346.53	33.7448	0.122585	161.735	0.587534
348.037	33.6065	0.0980169	161.071	0.469782
349.501	33.169	0.123114	158.975	0.590069
349.753	33.2495	0.106391	159.361	0.509918