Folder: PhDThesis/data/monolayers/nanoparticles/Ac_CoFe_C/edx/data

Note: README.md
# PhDThesis

Color palette:
- #0EA8DF #MatNat Blau
- #EE292F #Medizin Rot
- #FAAB2D #HumWis Orange
- #76C152 #Wiwi Gruen
- #7F0128 #Rechtswis Bordeaux
- #793394 #Philo Violett

Sample Translation
- Ol-CoFe-C : DD67
- Ac-CoFe-C : AH11
- Ac-CoFe-C-YF : YF45

File: AH11_1.txt
#FORMAT      : EMSA/MAS Spectral Data File
#VERSION     : 1.0
#TITLE       : Spectrum 1
#DATE        : 04-DEC-2018
#TIME        : 10:16
#OWNER       :
#NPOINTS     : 2048.
#NCOLUMNS    : 1.
#XUNITS      : keV
#YUNITS      : counts
#DATATYPE    : XY
#XPERCHAN    : 0.0100000
#OFFSET      : -0.200000
#SIGNALTYPE  : EDS
#CHOFFSET    : 20.0000
#LIVETIME    : 100
#REALTIME    : 115.761
#BEAMKV      : 20.0000
#PROBECUR    : 0.000000
#MAGCAM      : 3213.00
#XTILTSTGE   : 0.0
#AZIMANGLE   : 0.0
#ELEVANGLE   : 35.0
#XPOSITION mm: 0.0000
#YPOSITION mm: 0.0000
#ZPOSITION mm: 0.0000
##OXINSTPT   : 5
##OXINSTSTROB: 50.43
##OXINSTELEMS: 6,8,11,14,26,27
##OXINSTLABEL: 14, 1.740, Si
##OXINSTLABEL: 8, 0.525, O
##OXINSTLABEL: 27, 6.930, Co
##OXINSTLABEL: 27, 7.650, Co
##OXINSTLABEL: 27, 0.776, Co
##OXINSTLABEL: 27, 0.694, Co
##OXINSTLABEL: 27, 0.678, Co
##OXINSTLABEL: 26, 6.404, Fe
##OXINSTLABEL: 26, 7.058, Fe
##OXINSTLABEL: 26, 0.705, Fe
##OXINSTLABEL: 26, 0.628, Fe
##OXINSTLABEL: 6, 0.277, C
##OXINSTLABEL: 11, 1.041, Na
#SPECTRUM    : Spectral Data Starts Here
-0.20000, 0.
-0.13000, 3.
-0.06000, 183.
0.01000, 7820.
0.08000, 863.
0.15000, 178.
0.22000, 414.
0.29000, 1240.
0.36000, 51.
0.43000, 78.
0.50000, 1292.
0.57000, 522.
0.64000, 298.
0.71000, 807.
0.78000, 345.
0.85000, 67.
0.92000, 50.
0.99000, 58.
1.06000, 81.
1.13000, 73.
1.20000, 82.
1.27000, 87.
1.34000, 73.
1.41000, 108.
1.48000, 107.
1.55000, 94.
1.62000, 102.
1.69000, 145.
1.76000, 207.
1.83000, 122.
1.90000, 110.
1.97000, 96.
2.04000, 101.
2.11000, 90.
2.18000, 97.
2.25000, 110.
2.32000, 105.
2.39000, 85.
2.46000, 102.
2.53000, 100.
2.60000, 100.
2.67000, 83.
2.74000, 98.
2.81000, 92.
2.88000, 79.
2.95000, 78.
3.02000, 82.
3.09000, 87.
3.16000, 72.
3.23000, 92.
3.30000, 71.
3.37000, 66.
3.44000, 76.
3.51000, 73.
3.58000, 72.
3.65000, 91.
3.72000, 67.
3.79000, 67.
3.86000, 71.
3.93000, 61.
4.00000, 60.
4.07000, 58.
4.14000, 53.
4.21000, 56.
4.28000, 52.
4.35000, 55.
4.42000, 53.
4.49000, 53.
4.56000, 62.
4.63000, 65.
4.70000, 60.
4.77000, 55.
4.84000, 58.
4.91000, 40.
4.98000, 50.
5.05000, 41.
5.12000, 44.
5.19000, 43.
5.26000, 42.
5.33000, 44.
5.40000, 48.
5.47000, 52.
5.54000, 40.
5.61000, 47.
5.68000, 30.
5.75000, 43.
5.82000, 43.
5.89000, 32.
5.96000, 36.
6.03000, 28.
6.10000, 43.
6.17000, 43.
6.24000, 77.
6.31000, 537.
6.38000, 1533.
6.45000, 1189.
6.52000, 268.
6.59000, 42.
6.66000, 41.
6.73000, 32.
6.80000, 81.
6.87000, 289.
6.94000, 429.
7.01000, 353.
7.08000, 220.
7.15000, 78.
7.22000, 32.
7.29000, 32.
7.36000, 18.
7.43000, 26.
7.50000, 23.
7.57000, 43.
7.64000, 64.
7.71000, 42.
7.78000, 26.
7.85000, 19.
7.92000, 27.
7.99000, 19.
8.06000, 18.
8.13000, 16.
8.20000, 17.
8.27000, 17.
8.34000, 22.
8.41000, 17.
8.48000, 23.
8.55000, 17.
8.62000, 21.
8.69000, 12.
8.76000, 21.
8.83000, 14.
8.90000, 15.
8.97000, 23.
9.04000, 13.
9.11000, 14.
9.18000, 15.
9.25000, 14.
9.32000, 14.
9.39000, 18.
9.46000, 13.
9.53000, 12.
9.60000, 8.
9.67000, 7.
9.74000, 9.
9.81000, 11.
9.88000, 10.
9.95000, 13.
10.02000, 13.
10.09000, 8.
10.16000, 11.
10.23000, 10.
10.30000, 14.
10.37000, 12.
10.44000, 12.
10.51000, 10.
10.58000, 11.
10.65000, 9.
10.72000, 12.
10.79000, 14.
10.86000, 13.
10.93000, 13.
11.00000, 6.
11.07000, 11.
11.14000, 8.
11.21000, 15.
11.28000, 9.
11.35000, 10.
11.42000, 10.
11.49000, 13.
11.56000, 6.
11.63000, 9.
11.70000, 11.
11.77000, 8.
11.84000, 7.
11.91000, 11.
11.98000, 8.
12.05000, 11.
12.12000, 8.
12.19000, 11.
12.26000, 10.
12.33000, 4.
12.40000, 3.
12.47000, 8.
12.54000, 8.
12.61000, 7.
12.68000, 7.
12.75000, 8.
12.82000, 7.
12.89000, 11.
12.96000, 7.
13.03000, 3.
13.10000, 9.
13.17000, 5.
13.24000, 5.
13.31000, 9.
13.38000, 5.
13.45000, 4.
13.52000, 5.
13.59000, 5.
13.66000, 3.
13.73000, 5.
13.80000, 6.
13.87000, 5.
13.94000, 5.
14.01000, 8.
14.08000, 9.
14.15000, 5.
14.22000, 6.
14.29000, 2.
14.36000, 4.
14.43000, 2.
14.50000, 7.
14.57000, 4.
14.64000, 4.
14.71000, 6.
14.78000, 2.
14.85000, 3.
14.92000, 6.
14.99000, 3.
15.06000, 7.
15.13000, 4.
15.20000, 4.
15.27000, 1.
15.34000, 3.
15.41000, 4.
15.48000, 3.
15.55000, 2.
15.62000, 1.
15.69000, 5.
15.76000, 3.
15.83000, 3.
15.90000, 0.
15.97000, 0.
16.04000, 2.
16.11000, 2.
16.18000, 3.
16.25000, 0.
16.32000, 5.
16.39000, 3.
16.46000, 3.
16.53000, 1.
16.60000, 1.
16.67000, 2.
16.74000, 2.
16.81000, 3.
16.88000, 0.
16.95000, 4.
17.02000, 1.
17.09000, 0.
17.16000, 2.
17.23000, 2.
17.30000, 3.
17.37000, 1.
17.44000, 3.
17.51000, 2.
17.58000, 1.
17.65000, 1.
17.72000, 1.
17.79000, 1.
17.86000, 0.
17.93000, 1.
18.00000, 2.
18.07000, 0.
18.14000, 1.
18.21000, 0.
18.28000, 0.
18.35000, 0.
18.42000, 0.
18.49000, 1.
18.56000, 1.
18.63000, 0.
18.70000, 0.
18.77000, 1.
18.84000, 0.
18.91000, 0.
18.98000, 0.
19.05000, 0.
19.12000, 0.
19.19000, 0.
19.26000, 0.
19.33000, 0.
19.40000, 0.
19.47000, 0.
19.54000, 0.
19.61000, 0.
19.68000, 0.
19.75000, 0.
19.82000, 0.
19.89000, 0.
19.96000, 0.
20.03000, 0.
20.10000, 0.
20.17000, 0.
20.24000, 0.
20.27000, 0.
#ENDOFDATA   :

File: AH11_2.txt
#FORMAT      : EMSA/MAS Spectral Data File
#VERSION     : 1.0
#TITLE       : Spectrum 1
#DATE        : 04-DEC-2018
#TIME        : 10:20
#OWNER       :
#NPOINTS     : 2048.
#NCOLUMNS    : 1.
#XUNITS      : keV
#YUNITS      : counts
#DATATYPE    : XY
#XPERCHAN    : 0.0100000
#OFFSET      : -0.200000
#SIGNALTYPE  : EDS
#CHOFFSET    : 20.0000
#LIVETIME    : 100
#REALTIME    : 112.747
#BEAMKV      : 20.0000
#PROBECUR    : 0.000000
#MAGCAM      : 1390.00
#XTILTSTGE   : 0.0
#AZIMANGLE   : 0.0
#ELEVANGLE   : 35.0
#XPOSITION mm: 0.0000
#YPOSITION mm: 0.0000
#ZPOSITION mm: 0.0000
##OXINSTPT   : 5
##OXINSTSTROB: 49.11
##OXINSTELEMS: 6,8,11,14,26,27
##OXINSTLABEL: 26, 6.404, Fe
##OXINSTLABEL: 26, 7.058, Fe
##OXINSTLABEL: 26, 0.705, Fe
##OXINSTLABEL: 26, 0.628, Fe
##OXINSTLABEL: 8, 0.525, O
##OXINSTLABEL: 14, 1.740, Si
##OXINSTLABEL: 27, 6.930, Co
##OXINSTLABEL: 27, 7.650, Co
##OXINSTLABEL: 27, 0.776, Co
##OXINSTLABEL: 27, 0.694, Co
##OXINSTLABEL: 27, 0.678, Co
##OXINSTLABEL: 6, 0.277, C
##OXINSTLABEL: 11, 1.041, Na
#SPECTRUM    : Spectral Data Starts Here
-0.20000, 0.
-0.13000, 0.
-0.06000, 38.
0.01000, 5605.
0.08000, 106.
0.15000, 28.
0.22000, 202.
0.29000, 908.
0.36000, 21.
0.43000, 45.
0.50000, 1050.
0.57000, 369.
0.64000, 195.
0.71000, 647.
0.78000, 245.
0.85000, 53.
0.92000, 44.
0.99000, 40.
1.06000, 82.
1.13000, 64.
1.20000, 69.
1.27000, 64.
1.34000, 72.
1.41000, 79.
1.48000, 101.
1.55000, 94.
1.62000, 89.
1.69000, 117.
1.76000, 195.
1.83000, 110.
1.90000, 103.
1.97000, 101.
2.04000, 110.
2.11000, 96.
2.18000, 96.
2.25000, 89.
2.32000, 114.
2.39000, 86.
2.46000, 101.
2.53000, 99.
2.60000, 89.
2.67000, 96.
2.74000, 102.
2.81000, 85.
2.88000, 79.
2.95000, 73.
3.02000, 86.
3.09000, 84.
3.16000, 82.
3.23000, 74.
3.30000, 82.
3.37000, 75.
3.44000, 67.
3.51000, 61.
3.58000, 70.
3.65000, 64.
3.72000, 62.
3.79000, 64.
3.86000, 65.
3.93000, 70.
4.00000, 56.
4.07000, 71.
4.14000, 54.
4.21000, 52.
4.28000, 55.
4.35000, 59.
4.42000, 60.
4.49000, 57.
4.56000, 51.
4.63000, 50.
4.70000, 58.
4.77000, 39.
4.84000, 42.
4.91000, 58.
4.98000, 44.
5.05000, 42.
5.12000, 52.
5.19000, 55.
5.26000, 41.
5.33000, 37.
5.40000, 45.
5.47000, 46.
5.54000, 35.
5.61000, 35.
5.68000, 40.
5.75000, 41.
5.82000, 34.
5.89000, 38.
5.96000, 34.
6.03000, 31.
6.10000, 40.
6.17000, 34.
6.24000, 85.
6.31000, 499.
6.38000, 1626.
6.45000, 1183.
6.52000, 236.
6.59000, 34.
6.66000, 40.
6.73000, 35.
6.80000, 64.
6.87000, 297.
6.94000, 465.
7.01000, 386.
7.08000, 244.
7.15000, 101.
7.22000, 33.
7.29000, 33.
7.36000, 25.
7.43000, 23.
7.50000, 27.
7.57000, 44.
7.64000, 60.
7.71000, 60.
7.78000, 34.
7.85000, 23.
7.92000, 16.
7.99000, 22.
8.06000, 19.
8.13000, 21.
8.20000, 18.
8.27000, 22.
8.34000, 22.
8.41000, 19.
8.48000, 16.
8.55000, 17.
8.62000, 19.
8.69000, 19.
8.76000, 14.
8.83000, 16.
8.90000, 14.
8.97000, 16.
9.04000, 18.
9.11000, 11.
9.18000, 14.
9.25000, 13.
9.32000, 17.
9.39000, 17.
9.46000, 11.
9.53000, 11.
9.60000, 22.
9.67000, 14.
9.74000, 13.
9.81000, 15.
9.88000, 21.
9.95000, 11.
10.02000, 18.
10.09000, 12.
10.16000, 12.
10.23000, 14.
10.30000, 14.
10.37000, 11.
10.44000, 10.
10.51000, 12.
10.58000, 10.
10.65000, 14.
10.72000, 11.
10.79000, 9.
10.86000, 12.
10.93000, 11.
11.00000, 12.
11.07000, 14.
11.14000, 7.
11.21000, 11.
11.28000, 9.
11.35000, 12.
11.42000, 5.
11.49000, 14.
11.56000, 8.
11.63000, 11.
11.70000, 14.
11.77000, 9.
11.84000, 9.
11.91000, 16.
11.98000, 6.
12.05000, 5.
12.12000, 6.
12.19000, 12.
12.26000, 7.
12.33000, 8.
12.40000, 12.
12.47000, 6.
12.54000, 6.
12.61000, 9.
12.68000, 7.
12.75000, 9.
12.82000, 6.
12.89000, 5.
12.96000, 6.
13.03000, 9.
13.10000, 8.
13.17000, 7.
13.24000, 8.
13.31000, 9.
13.38000, 6.
13.45000, 8.
13.52000, 10.
13.59000, 8.
13.66000, 6.
13.73000, 4.
13.80000, 6.
13.87000, 5.
13.94000, 9.
14.01000, 9.
14.08000, 7.
14.15000, 6.
14.22000, 6.
14.29000, 5.
14.36000, 2.
14.43000, 10.
14.50000, 7.
14.57000, 4.
14.64000, 5.
14.71000, 5.
14.78000, 8.
14.85000, 5.
14.92000, 2.
14.99000, 6.
15.06000, 3.
15.13000, 6.
15.20000, 2.
15.27000, 3.
15.34000, 9.
15.41000, 2.
15.48000, 6.
15.55000, 1.
15.62000, 3.
15.69000, 4.
15.76000, 2.
15.83000, 4.
15.90000, 5.
15.97000, 3.
16.04000, 2.
16.11000, 4.
16.18000, 2.
16.25000, 1.
16.32000, 2.
16.39000, 2.
16.46000, 4.
16.53000, 2.
16.60000, 2.
16.67000, 2.
16.74000, 3.
16.81000, 4.
16.88000, 3.
16.95000, 0.
17.02000, 3.
17.09000, 2.
17.16000, 5.
17.23000, 0.
17.30000, 0.
17.37000, 1.
17.44000, 0.
17.51000, 3.
17.58000, 0.
17.65000, 2.
17.72000, 1.
17.79000, 0.
17.86000, 0.
17.93000, 2.
18.00000, 1.
18.07000, 0.
18.14000, 3.
18.21000, 1.
18.28000, 0.
18.35000, 0.
18.42000, 0.
18.49000, 0.
18.56000, 1.
18.63000, 1.
18.70000, 0.
18.77000, 1.
18.84000, 2.
18.91000, 0.
18.98000, 0.
19.05000, 0.
19.12000, 0.
19.19000, 0.
19.26000, 1.
19.33000, 0.
19.40000, 0.
19.47000, 1.
19.54000, 0.
19.61000, 0.
19.68000, 0.
19.75000, 0.
19.82000, 0.
19.89000, 0.
19.96000, 0.
20.03000, 0.
20.10000, 0.
20.17000, 0.
20.24000, 0.
20.27000, 0.
#ENDOFDATA   :

File: AH11_3.txt
#FORMAT      : EMSA/MAS Spectral Data File
#VERSION     : 1.0
#TITLE       : Spectrum 1
#DATE        : 04-DEC-2018
#TIME        : 10:23
#OWNER       :
#NPOINTS     : 2048.
#NCOLUMNS    : 1.
#XUNITS      : keV
#YUNITS      : counts
#DATATYPE    : XY
#XPERCHAN    : 0.0100000
#OFFSET      : -0.200000
#SIGNALTYPE  : EDS
#CHOFFSET    : 20.0000
#LIVETIME    : 100
#REALTIME    : 118.365
#BEAMKV      : 20.0000
#PROBECUR    : 0.000000
#MAGCAM      : 1390.00
#XTILTSTGE   : 0.0
#AZIMANGLE   : 0.0
#ELEVANGLE   : 35.0
#XPOSITION mm: 0.0000
#YPOSITION mm: 0.0000
#ZPOSITION mm: 0.0000
##OXINSTPT   : 5
##OXINSTSTROB: 50.14
##OXINSTELEMS: 6,8,14,26,27
##OXINSTLABEL: 8, 0.525, O
##OXINSTLABEL: 14, 1.740, Si
##OXINSTLABEL: 26, 6.404, Fe
##OXINSTLABEL: 26, 7.058, Fe
##OXINSTLABEL: 26, 0.705, Fe
##OXINSTLABEL: 26, 0.628, Fe
##OXINSTLABEL: 27, 6.930, Co
##OXINSTLABEL: 27, 7.650, Co
##OXINSTLABEL: 27, 0.776, Co
##OXINSTLABEL: 27, 0.694, Co
##OXINSTLABEL: 27, 0.678, Co
##OXINSTLABEL: 6, 0.277, C
#SPECTRUM    : Spectral Data Starts Here
-0.20000, 0.
-0.13000, 13.
-0.06000, 290.
0.01000, 7748.
0.08000, 1049.
0.15000, 399.
0.22000, 331.
0.29000, 1165.
0.36000, 37.
0.43000, 74.
0.50000, 1161.
0.57000, 467.
0.64000, 259.
0.71000, 740.
0.78000, 296.
0.85000, 69.
0.92000, 41.
0.99000, 57.
1.06000, 77.
1.13000, 68.
1.20000, 65.
1.27000, 83.
1.34000, 71.
1.41000, 96.
1.48000, 102.
1.55000, 106.
1.62000, 108.
1.69000, 180.
1.76000, 323.
1.83000, 122.
1.90000, 103.
1.97000, 109.
2.04000, 111.
2.11000, 96.
2.18000, 97.
2.25000, 105.
2.32000, 106.
2.39000, 92.
2.46000, 108.
2.53000, 96.
2.60000, 104.
2.67000, 96.
2.74000, 87.
2.81000, 95.
2.88000, 81.
2.95000, 86.
3.02000, 88.
3.09000, 88.
3.16000, 94.
3.23000, 86.
3.30000, 79.
3.37000, 90.
3.44000, 83.
3.51000, 86.
3.58000, 79.
3.65000, 75.
3.72000, 62.
3.79000, 71.
3.86000, 83.
3.93000, 73.
4.00000, 73.
4.07000, 59.
4.14000, 59.
4.21000, 58.
4.28000, 55.
4.35000, 56.
4.42000, 62.
4.49000, 61.
4.56000, 62.
4.63000, 64.
4.70000, 69.
4.77000, 62.
4.84000, 64.
4.91000, 47.
4.98000, 47.
5.05000, 42.
5.12000, 36.
5.19000, 56.
5.26000, 52.
5.33000, 47.
5.40000, 36.
5.47000, 50.
5.54000, 36.
5.61000, 47.
5.68000, 49.
5.75000, 46.
5.82000, 34.
5.89000, 41.
5.96000, 41.
6.03000, 29.
6.10000, 39.
6.17000, 42.
6.24000, 100.
6.31000, 579.
6.38000, 1776.
6.45000, 1300.
6.52000, 257.
6.59000, 56.
6.66000, 37.
6.73000, 41.
6.80000, 92.
6.87000, 336.
6.94000, 521.
7.01000, 368.
7.08000, 271.
7.15000, 102.
7.22000, 27.
7.29000, 23.
7.36000, 31.
7.43000, 19.
7.50000, 37.
7.57000, 43.
7.64000, 66.
7.71000, 64.
7.78000, 24.
7.85000, 22.
7.92000, 23.
7.99000, 18.
8.06000, 16.
8.13000, 22.
8.20000, 19.
8.27000, 20.
8.34000, 13.
8.41000, 22.
8.48000, 11.
8.55000, 20.
8.62000, 25.
8.69000, 17.
8.76000, 16.
8.83000, 11.
8.90000, 16.
8.97000, 25.
9.04000, 20.
9.11000, 17.
9.18000, 17.
9.25000, 19.
9.32000, 16.
9.39000, 18.
9.46000, 13.
9.53000, 18.
9.60000, 14.
9.67000, 14.
9.74000, 18.
9.81000, 16.
9.88000, 15.
9.95000, 14.
10.02000, 16.
10.09000, 12.
10.16000, 13.
10.23000, 17.
10.30000, 11.
10.37000, 13.
10.44000, 15.
10.51000, 13.
10.58000, 13.
10.65000, 13.
10.72000, 13.
10.79000, 11.
10.86000, 11.
10.93000, 8.
11.00000, 17.
11.07000, 13.
11.14000, 12.
11.21000, 11.
11.28000, 10.
11.35000, 12.
11.42000, 9.
11.49000, 9.
11.56000, 13.
11.63000, 11.
11.70000, 14.
11.77000, 10.
11.84000, 7.
11.91000, 11.
11.98000, 13.
12.05000, 10.
12.12000, 9.
12.19000, 6.
12.26000, 6.
12.33000, 8.
12.40000, 10.
12.47000, 6.
12.54000, 10.
12.61000, 6.
12.68000, 11.
12.75000, 7.
12.82000, 8.
12.89000, 7.
12.96000, 7.
13.03000, 7.
13.10000, 9.
13.17000, 8.
13.24000, 8.
13.31000, 8.
13.38000, 6.
13.45000, 5.
13.52000, 5.
13.59000, 8.
13.66000, 9.
13.73000, 8.
13.80000, 6.
13.87000, 6.
13.94000, 5.
14.01000, 8.
14.08000, 8.
14.15000, 7.
14.22000, 5.
14.29000, 6.
14.36000, 5.
14.43000, 6.
14.50000, 6.
14.57000, 7.
14.64000, 6.
14.71000, 5.
14.78000, 3.
14.85000, 7.
14.92000, 7.
14.99000, 5.
15.06000, 2.
15.13000, 5.
15.20000, 7.
15.27000, 5.
15.34000, 7.
15.41000, 7.
15.48000, 3.
15.55000, 5.
15.62000, 2.
15.69000, 5.
15.76000, 5.
15.83000, 3.
15.90000, 4.
15.97000, 3.
16.04000, 1.
16.11000, 2.
16.18000, 3.
16.25000, 2.
16.32000, 4.
16.39000, 3.
16.46000, 3.
16.53000, 2.
16.60000, 3.
16.67000, 2.
16.74000, 5.
16.81000, 1.
16.88000, 1.
16.95000, 1.
17.02000, 2.
17.09000, 4.
17.16000, 0.
17.23000, 2.
17.30000, 1.
17.37000, 0.
17.44000, 1.
17.51000, 0.
17.58000, 2.
17.65000, 2.
17.72000, 3.
17.79000, 3.
17.86000, 1.
17.93000, 3.
18.00000, 1.
18.07000, 1.
18.14000, 0.
18.21000, 3.
18.28000, 1.
18.35000, 2.
18.42000, 2.
18.49000, 2.
18.56000, 0.
18.63000, 2.
18.70000, 0.
18.77000, 0.
18.84000, 0.
18.91000, 0.
18.98000, 0.
19.05000, 0.
19.12000, 0.
19.19000, 1.
19.26000, 0.
19.33000, 1.
19.40000, 1.
19.47000, 0.
19.54000, 0.
19.61000, 0.
19.68000, 0.
19.75000, 0.
19.82000, 0.
19.89000, 0.
19.96000, 0.
20.03000, 0.
20.10000, 0.
20.17000, 0.
20.24000, 0.
20.27000, 0.
#ENDOFDATA   :

File: AH11_4.txt
#FORMAT      : EMSA/MAS Spectral Data File
#VERSION     : 1.0
#TITLE       : Spectrum 1
#DATE        : 04-DEC-2018
#TIME        : 10:26
#OWNER       :
#NPOINTS     : 2048.
#NCOLUMNS    : 1.
#XUNITS      : keV
#YUNITS      : counts
#DATATYPE    : XY
#XPERCHAN    : 0.0100000
#OFFSET      : -0.200000
#SIGNALTYPE  : EDS
#CHOFFSET    : 20.0000
#LIVETIME    : 100
#REALTIME    : 113.975
#BEAMKV      : 20.0000
#PROBECUR    : 0.000000
#MAGCAM      : 1390.00
#XTILTSTGE   : 0.0
#AZIMANGLE   : 0.0
#ELEVANGLE   : 35.0
#XPOSITION mm: 0.0000
#YPOSITION mm: 0.0000
#ZPOSITION mm: 0.0000
##OXINSTPT   : 5
##OXINSTSTROB: 49.42
##OXINSTELEMS: 6,8,14,26,27
##OXINSTLABEL: 14, 1.740, Si
##OXINSTLABEL: 26, 6.404, Fe
##OXINSTLABEL: 26, 7.058, Fe
##OXINSTLABEL: 26, 0.705, Fe
##OXINSTLABEL: 26, 0.628, Fe
##OXINSTLABEL: 8, 0.525, O
##OXINSTLABEL: 27, 6.930, Co
##OXINSTLABEL: 27, 7.650, Co
##OXINSTLABEL: 27, 0.776, Co
##OXINSTLABEL: 27, 0.694, Co
##OXINSTLABEL: 27, 0.678, Co
##OXINSTLABEL: 6, 0.277, C
#SPECTRUM    : Spectral Data Starts Here
-0.20000, 0.
-0.13000, 2.
-0.06000, 54.
0.01000, 5963.
0.08000, 205.
0.15000, 77.
0.22000, 167.
0.29000, 613.
0.36000, 43.
0.43000, 68.
0.50000, 1304.
0.57000, 481.
0.64000, 252.
0.71000, 766.
0.78000, 309.
0.85000, 53.
0.92000, 33.
0.99000, 40.
1.06000, 51.
1.13000, 53.
1.20000, 63.
1.27000, 62.
1.34000, 77.
1.41000, 69.
1.48000, 86.
1.55000, 91.
1.62000, 96.
1.69000, 219.
1.76000, 419.
1.83000, 133.
1.90000, 98.
1.97000, 93.
2.04000, 92.
2.11000, 111.
2.18000, 99.
2.25000, 98.
2.32000, 94.
2.39000, 96.
2.46000, 102.
2.53000, 89.
2.60000, 90.
2.67000, 86.
2.74000, 93.
2.81000, 79.
2.88000, 95.
2.95000, 90.
3.02000, 85.
3.09000, 85.
3.16000, 80.
3.23000, 80.
3.30000, 82.
3.37000, 76.
3.44000, 78.
3.51000, 68.
3.58000, 76.
3.65000, 78.
3.72000, 70.
3.79000, 69.
3.86000, 69.
3.93000, 71.
4.00000, 70.
4.07000, 64.
4.14000, 60.
4.21000, 50.
4.28000, 57.
4.35000, 58.
4.42000, 64.
4.49000, 68.
4.56000, 60.
4.63000, 55.
4.70000, 54.
4.77000, 52.
4.84000, 47.
4.91000, 40.
4.98000, 52.
5.05000, 50.
5.12000, 54.
5.19000, 42.
5.26000, 42.
5.33000, 49.
5.40000, 33.
5.47000, 49.
5.54000, 46.
5.61000, 39.
5.68000, 35.
5.75000, 38.
5.82000, 39.
5.89000, 42.
5.96000, 41.
6.03000, 40.
6.10000, 33.
6.17000, 47.
6.24000, 84.
6.31000, 573.
6.38000, 1730.
6.45000, 1342.
6.52000, 255.
6.59000, 53.
6.66000, 29.
6.73000, 39.
6.80000, 70.
6.87000, 351.
6.94000, 512.
7.01000, 370.
7.08000, 257.
7.15000, 82.
7.22000, 33.
7.29000, 27.
7.36000, 28.
7.43000, 24.
7.50000, 17.
7.57000, 34.
7.64000, 96.
7.71000, 40.
7.78000, 14.
7.85000, 28.
7.92000, 21.
7.99000, 20.
8.06000, 22.
8.13000, 25.
8.20000, 16.
8.27000, 19.
8.34000, 19.
8.41000, 20.
8.48000, 12.
8.55000, 21.
8.62000, 19.
8.69000, 25.
8.76000, 22.
8.83000, 14.
8.90000, 17.
8.97000, 18.
9.04000, 24.
9.11000, 20.
9.18000, 21.
9.25000, 16.
9.32000, 13.
9.39000, 14.
9.46000, 10.
9.53000, 16.
9.60000, 13.
9.67000, 20.
9.74000, 15.
9.81000, 20.
9.88000, 13.
9.95000, 17.
10.02000, 15.
10.09000, 16.
10.16000, 17.
10.23000, 14.
10.30000, 12.
10.37000, 14.
10.44000, 13.
10.51000, 13.
10.58000, 12.
10.65000, 13.
10.72000, 11.
10.79000, 12.
10.86000, 15.
10.93000, 12.
11.00000, 9.
11.07000, 9.
11.14000, 17.
11.21000, 13.
11.28000, 9.
11.35000, 10.
11.42000, 10.
11.49000, 15.
11.56000, 10.
11.63000, 16.
11.70000, 11.
11.77000, 10.
11.84000, 10.
11.91000, 11.
11.98000, 8.
12.05000, 8.
12.12000, 15.
12.19000, 9.
12.26000, 12.
12.33000, 8.
12.40000, 13.
12.47000, 11.
12.54000, 7.
12.61000, 9.
12.68000, 6.
12.75000, 13.
12.82000, 7.
12.89000, 9.
12.96000, 9.
13.03000, 9.
13.10000, 12.
13.17000, 10.
13.24000, 4.
13.31000, 7.
13.38000, 8.
13.45000, 10.
13.52000, 6.
13.59000, 12.
13.66000, 7.
13.73000, 3.
13.80000, 5.
13.87000, 1.
13.94000, 5.
14.01000, 5.
14.08000, 8.
14.15000, 8.
14.22000, 7.
14.29000, 6.
14.36000, 6.
14.43000, 6.
14.50000, 9.
14.57000, 6.
14.64000, 3.
14.71000, 6.
14.78000, 9.
14.85000, 6.
14.92000, 7.
14.99000, 3.
15.06000, 6.
15.13000, 3.
15.20000, 3.
15.27000, 3.
15.34000, 5.
15.41000, 4.
15.48000, 4.
15.55000, 2.
15.62000, 5.
15.69000, 7.
15.76000, 9.
15.83000, 4.
15.90000, 3.
15.97000, 2.
16.04000, 2.
16.11000, 3.
16.18000, 6.
16.25000, 5.
16.32000, 0.
16.39000, 2.
16.46000, 4.
16.53000, 4.
16.60000, 3.
16.67000, 6.
16.74000, 1.
16.81000, 3.
16.88000, 1.
16.95000, 3.
17.02000, 0.
17.09000, 2.
17.16000, 2.
17.23000, 3.
17.30000, 3.
17.37000, 3.
17.44000, 1.
17.51000, 3.
17.58000, 1.
17.65000, 4.
17.72000, 1.
17.79000, 2.
17.86000, 1.
17.93000, 1.
18.00000, 3.
18.07000, 1.
18.14000, 2.
18.21000, 1.
18.28000, 0.
18.35000, 0.
18.42000, 2.
18.49000, 1.
18.56000, 1.
18.63000, 0.
18.70000, 1.
18.77000, 0.
18.84000, 0.
18.91000, 0.
18.98000, 0.
19.05000, 1.
19.12000, 1.
19.19000, 1.
19.26000, 0.
19.33000, 0.
19.40000, 1.
19.47000, 0.
19.54000, 0.
19.61000, 1.
19.68000, 0.
19.75000, 0.
19.82000, 0.
19.89000, 0.
19.96000, 0.
20.03000, 0.
20.10000, 0.
20.17000, 0.
20.24000, 0.
20.27000, 0.
#ENDOFDATA   :

File: AH11_5.txt
#FORMAT      : EMSA/MAS Spectral Data File
#VERSION     : 1.0
#TITLE       : Spectrum 1
#DATE        : 04-DEC-2018
#TIME        : 10:28
#OWNER       :
#NPOINTS     : 2048.
#NCOLUMNS    : 1.
#XUNITS      : keV
#YUNITS      : counts
#DATATYPE    : XY
#XPERCHAN    : 0.0100000
#OFFSET      : -0.200000
#SIGNALTYPE  : EDS
#CHOFFSET    : 20.0000
#LIVETIME    : 100
#REALTIME    : 114.384
#BEAMKV      : 20.0000
#PROBECUR    : 0.000000
#MAGCAM      : 1390.00
#XTILTSTGE   : 0.0
#AZIMANGLE   : 0.0
#ELEVANGLE   : 35.0
#XPOSITION mm: 0.0000
#YPOSITION mm: 0.0000
#ZPOSITION mm: 0.0000
##OXINSTPT   : 5
##OXINSTSTROB: 49.24
##OXINSTELEMS: 6,8,11,14,26,27
##OXINSTLABEL: 26, 6.404, Fe
##OXINSTLABEL: 26, 7.058, Fe
##OXINSTLABEL: 26, 0.705, Fe
##OXINSTLABEL: 26, 0.628, Fe
##OXINSTLABEL: 8, 0.525, O
##OXINSTLABEL: 6, 0.277, C
##OXINSTLABEL: 27, 6.930, Co
##OXINSTLABEL: 27, 7.650, Co
##OXINSTLABEL: 27, 0.776, Co
##OXINSTLABEL: 27, 0.694, Co
##OXINSTLABEL: 27, 0.678, Co
##OXINSTLABEL: 14, 1.740, Si
##OXINSTLABEL: 11, 1.041, Na
#SPECTRUM    : Spectral Data Starts Here
-0.20000, 0.
-0.13000, 3.
-0.06000, 41.
0.01000, 5715.
0.08000, 195.
0.15000, 115.
0.22000, 476.
0.29000, 1712.
0.36000, 157.
0.43000, 101.
0.50000, 1081.
0.57000, 401.
0.64000, 236.
0.71000, 723.
0.78000, 304.
0.85000, 70.
0.92000, 54.
0.99000, 66.
1.06000, 81.
1.13000, 67.
1.20000, 78.
1.27000, 80.
1.34000, 91.
1.41000, 101.
1.48000, 88.
1.55000, 95.
1.62000, 96.
1.69000, 115.
1.76000, 166.
1.83000, 116.
1.90000, 111.
1.97000, 108.
2.04000, 125.
2.11000, 104.
2.18000, 103.
2.25000, 96.
2.32000, 112.
2.39000, 94.
2.46000, 102.
2.53000, 102.
2.60000, 93.
2.67000, 98.
2.74000, 97.
2.81000, 91.
2.88000, 87.
2.95000, 94.
3.02000, 97.
3.09000, 82.
3.16000, 81.
3.23000, 82.
3.30000, 92.
3.37000, 83.
3.44000, 83.
3.51000, 85.
3.58000, 83.
3.65000, 76.
3.72000, 71.
3.79000, 70.
3.86000, 71.
3.93000, 60.
4.00000, 70.
4.07000, 67.
4.14000, 66.
4.21000, 57.
4.28000, 58.
4.35000, 54.
4.42000, 56.
4.49000, 58.
4.56000, 49.
4.63000, 61.
4.70000, 58.
4.77000, 61.
4.84000, 54.
4.91000, 57.
4.98000, 45.
5.05000, 55.
5.12000, 48.
5.19000, 51.
5.26000, 49.
5.33000, 43.
5.40000, 43.
5.47000, 42.
5.54000, 46.
5.61000, 43.
5.68000, 45.
5.75000, 44.
5.82000, 35.
5.89000, 39.
5.96000, 33.
6.03000, 38.
6.10000, 43.
6.17000, 54.
6.24000, 91.
6.31000, 574.
6.38000, 1809.
6.45000, 1274.
6.52000, 244.
6.59000, 45.
6.66000, 38.
6.73000, 36.
6.80000, 98.
6.87000, 349.
6.94000, 558.
7.01000, 359.
7.08000, 267.
7.15000, 99.
7.22000, 34.
7.29000, 17.
7.36000, 24.
7.43000, 20.
7.50000, 26.
7.57000, 59.
7.64000, 78.
7.71000, 69.
7.78000, 28.
7.85000, 26.
7.92000, 23.
7.99000, 30.
8.06000, 18.
8.13000, 20.
8.20000, 14.
8.27000, 22.
8.34000, 20.
8.41000, 17.
8.48000, 23.
8.55000, 26.
8.62000, 28.
8.69000, 15.
8.76000, 19.
8.83000, 17.
8.90000, 20.
8.97000, 17.
9.04000, 20.
9.11000, 22.
9.18000, 17.
9.25000, 21.
9.32000, 18.
9.39000, 22.
9.46000, 15.
9.53000, 12.
9.60000, 16.
9.67000, 13.
9.74000, 20.
9.81000, 17.
9.88000, 16.
9.95000, 14.
10.02000, 13.
10.09000, 17.
10.16000, 12.
10.23000, 14.
10.30000, 19.
10.37000, 12.
10.44000, 13.
10.51000, 12.
10.58000, 9.
10.65000, 16.
10.72000, 10.
10.79000, 14.
10.86000, 17.
10.93000, 12.
11.00000, 10.
11.07000, 11.
11.14000, 10.
11.21000, 12.
11.28000, 7.
11.35000, 11.
11.42000, 15.
11.49000, 15.
11.56000, 13.
11.63000, 12.
11.70000, 10.
11.77000, 9.
11.84000, 11.
11.91000, 13.
11.98000, 7.
12.05000, 6.
12.12000, 5.
12.19000, 7.
12.26000, 10.
12.33000, 9.
12.40000, 12.
12.47000, 8.
12.54000, 9.
12.61000, 11.
12.68000, 9.
12.75000, 8.
12.82000, 10.
12.89000, 8.
12.96000, 7.
13.03000, 5.
13.10000, 11.
13.17000, 9.
13.24000, 5.
13.31000, 6.
13.38000, 4.
13.45000, 6.
13.52000, 5.
13.59000, 8.
13.66000, 6.
13.73000, 6.
13.80000, 6.
13.87000, 4.
13.94000, 9.
14.01000, 6.
14.08000, 6.
14.15000, 9.
14.22000, 4.
14.29000, 5.
14.36000, 5.
14.43000, 5.
14.50000, 5.
14.57000, 4.
14.64000, 11.
14.71000, 7.
14.78000, 3.
14.85000, 4.
14.92000, 7.
14.99000, 4.
15.06000, 5.
15.13000, 7.
15.20000, 4.
15.27000, 5.
15.34000, 5.
15.41000, 3.
15.48000, 2.
15.55000, 3.
15.62000, 3.
15.69000, 3.
15.76000, 2.
15.83000, 5.
15.90000, 6.
15.97000, 2.
16.04000, 3.
16.11000, 0.
16.18000, 2.
16.25000, 6.
16.32000, 2.
16.39000, 4.
16.46000, 6.
16.53000, 5.
16.60000, 3.
16.67000, 2.
16.74000, 3.
16.81000, 2.
16.88000, 2.
16.95000, 1.
17.02000, 1.
17.09000, 0.
17.16000, 2.
17.23000, 3.
17.30000, 0.
17.37000, 3.
17.44000, 1.
17.51000, 2.
17.58000, 3.
17.65000, 3.
17.72000, 3.
17.79000, 2.
17.86000, 0.
17.93000, 1.
18.00000, 0.
18.07000, 3.
18.14000, 1.
18.21000, 3.
18.28000, 0.
18.35000, 2.
18.42000, 1.
18.49000, 0.
18.56000, 1.
18.63000, 1.
18.70000, 0.
18.77000, 1.
18.84000, 0.
18.91000, 0.
18.98000, 0.
19.05000, 1.
19.12000, 1.
19.19000, 1.
19.26000, 0.
19.33000, 0.
19.40000, 0.
19.47000, 0.
19.54000, 0.
19.61000, 0.
19.68000, 0.
19.75000, 0.
19.82000, 0.
19.89000, 0.
19.96000, 0.
20.03000, 0.
20.10000, 0.
20.17000, 0.
20.24000, 0.
20.27000, 0.
#ENDOFDATA   :