Folder: PhDThesis/data/looselyPackedNP/nanoparticles/sas/ios-7

Note: README.md
# PhDThesis

Color palette:
- #0EA8DF #MatNat Blau
- #EE292F #Medizin Rot
- #FAAB2D #HumWis Orange
- #76C152 #Wiwi Gruen
- #7F0128 #Rechtswis Bordeaux
- #793394 #Philo Violett

Sample Translation
- Ol-CoFe-C : DD67
- Ac-CoFe-C : AH11
- Ac-CoFe-C-YF : YF45

File: saxs_KWi338.xye
#Reducing manually
#Set Sample to: KWi338
#Set Solvent to: Cyclohexane
#Set Pixel size to: 0.172
#Set Wavelength to: 1.3414e-10
#Set Time Sample LSDD to: 3300
#Set Time Sample SSDD to: 20000
#Set Time Solvent LSDD to: 5940
#Set Time Solvent SSDD to: 5400
#Set Time EC LSDD to: 5940
#Set Time EC SSDD to: 5400
#Set Monitor Sample LSDD to: 6930000
#Set Monitor Sample SSDD to: 40000000
#Set Monitor Solvent LSDD to: 9783180
#Set Monitor Solvent SSDD to: 14715000
#Set Monitor EC LSDD to: 9783180
#Set Monitor EC SSDD to: 14715000
#Set Transmission Sample to: 0.5261
#Set Transmission Solvent to: 0.55655
#Set Transmission EC to: 0.61075
#Set Thickness Sample to: 0.1664
#Set Thickness Solvent to: 0.14905
#Set FEP distance to: 3391
#Set FEP CF to: 1.211756
#Set FEP Peak Intensity to: 26.53
#Set Monitor FEP to: 988200
#Set LSDD to: 3531
#Set Beamcenter LSDD y to: 599.6
#Set Beamcenter LSDD z to: 347.5
#Set SSDD to: 836
#Set Beamcenter SSDD y to: 611.9
#Set Beamcenter SSDD z to: 387.5
#Set TIF File Sample LSDD to: KWi338_LSDD_3300s.tif
#Set TIF File Sample SSDD to: KWi338_SSDD_20000s.tif
#Set TIF File Solvent LSDD to: CHEX_LSDD_5940s.tif
#Set TIF File Solvent SSDD to: CHEX_SSDD_5400s.tif
#Set TIF File EC LSDD to: EC_LSDD_5940s.tif
#Set TIF File EC SSDD to: EC_SSDD_5400s.tif
#Set SCALEFACTOR SOLVENT to: 1

#LSDD Data
#q / A-1	I / cm-1	sI / cm-1	q_sample / A-1	I_sample / cm-1	sI_sample / cm-1	q_solvent / A-1	I_solvent / cm-1	sI_solvent / cm-1	q_raw_sample / A-1	I_raw_sample / a.u.	sI_raw_sample / a.u.	q_raw_solvent / A-1	I_raw_solvent / a.u.	sI_raw_solvent / a.u.	q_raw_ec / A-1	I_raw_ec / a.u.	sI_raw_ec / a.u.
#0.00206916	-102.446	0.35547	0.00206916	-3897.92	8.67425	0.00326174	398.586	11.0374	0.000675581	192.913	3.00887	0.00326174	2164.81	3.55537	0.00326174	2184.602	3.57159
# 0.0062499	13.3388	0.0627309	0.0062499	598.202	2.4949	0.00739068	13.5387	0.40229	0.00485632	192.669	0.814093	0.00739068	12.7356	0.144038	0.00739068	7.470707	0.110319
# 0.0104306	15.6182	0.0438745	0.0104306	665.541	1.85309	0.0115196	2.13341	0.116397	0.00903706	205.7347	0.594267	0.0115196	1.739302	0.042637	0.0115196	0.8693777	0.0301442
0.0146114	16.2977	0.0375097	0.0146114	692.442	1.58625	0.0156485	1.38107	0.0967575	0.0132178	194.972	0.470758	0.0156485	1.29855	0.0346553	0.0156485	0.746252	0.0262713
0.0187921	13.9751	0.0286973	0.0187921	593.814	1.21267	0.0197775	1.23919	0.0849251	0.0173985	211.466	0.424604	0.0197775	1.22832	0.0301731	0.0197775	0.7371708	0.0233749
0.0229729	12.7435	0.0241338	0.0229729	541.451	1.01956	0.0239064	0.986649	0.0738965	0.0215793	162.786	0.31282	0.0239064	1.137665	0.0257477	0.0239064	0.758717	0.0210267
0.0271536	11.8017	0.0217147	0.0271536	501.413	0.917352	0.0280353	1.01767	0.0671866	0.02576	152.2771	0.287936	0.0280353	1.10913	0.0235372	0.0280353	0.712537	0.0188655
0.0313344	10.6546	0.0194199	0.0313344	452.663	0.820322	0.0321643	0.86083	0.0623291	0.0299408	138.911	0.243011	0.0321643	1.04579	0.0215548	0.0321643	0.718187	0.0178625
0.0355151	9.55174	0.0176534	0.0355151	405.73	0.745464	0.0362932	0.813502	0.0574444	0.0341215	120.134	0.228972	0.0362932	1.01428	0.019788	0.0362932	0.7062902	0.0165126
0.0396958	8.80257	0.0155239	0.0396958	374.05	0.655342	0.0404221	0.792701	0.0522725	0.0383023	113.004	0.199255	0.0404221	0.98379	0.0179829	0.0404221	0.6828034	0.0149816
0.0438766	7.9434	0.0139155	0.0438766	337.676	0.587288	0.0445511	0.878267	0.0504883	0.042483	102.781	0.177415	0.0445511	1.03192	0.0174517	0.0445511	0.6946099	0.0143181
0.0480573	7.04469	0.0124565	0.0480573	299.548	0.525409	0.04868	0.745125	0.0473315	0.0466637	91.73854	0.159241	0.04868	0.978059	0.0161544	0.04868	0.699314	0.0136598
0.0522381	6.21975	0.0111876	0.0522381	264.645	0.471617	0.0528089	0.807673	0.0445284	0.0508445	81.04209	0.142645	0.0528089	0.9626622	0.0153202	0.0528089	0.6524431	0.0126124
0.0564188	5.41947	0.0100262	0.0564188	230.639	0.422385	0.0569379	0.797435	0.0422705	0.0550252	71.06885	0.127909	0.0569379	0.9406409	0.0145365	0.0569379	0.633184	0.0119265
0.0605995	4.63567	0.00894221	0.0605995	197.348	0.376316	0.0610668	0.743402	0.0401905	0.059206	61.4315	0.11431	0.0610668	0.9073502	0.0137485	0.0610668	0.6225453	0.0113881
0.0647803	4.15503	0.00861919	0.0647803	177.052	0.362536	0.0651957	0.811212	0.0411585	0.0633867	54.15944	0.107402	0.0651957	0.9266518	0.0141919	0.0651957	0.6112296	0.0115262
0.068961	3.37667	0.0073306	0.068961	143.963	0.307812	0.0693247	0.782168	0.0377566	0.0675674	45.3749	0.0942833	0.0693247	0.885637	0.0129901	0.0693247	0.5801402	0.0105136
0.0731418	2.77709	0.00643642	0.0731418	118.593	0.269758	0.0734536	0.775979	0.0367124	0.0717482	37.47956	0.082258	0.0734536	0.892841	0.0125917	0.0734536	0.5910112	0.0102446
0.0773225	2.24027	0.00562279	0.0773225	95.7822	0.235102	0.0775825	0.727611	0.035195	0.0759289	30.4058	0.0716019	0.0775825	0.865422	0.012005	0.0775825	0.5841015	0.00986263
0.0815032	1.64583	0.00492836	0.0815032	70.7112	0.205049	0.0817114	0.842818	0.0358748	0.0801097	23.4261	0.0624975	0.0817114	0.897961	0.0124018	0.0817114	0.5645985	0.00983389
0.085684	1.19854	0.00425904	0.085684	51.5938	0.176119	0.0858404	0.703158	0.0356105	0.0842904	17.0835	0.0537537	0.0858404	0.859433	0.0121194	0.0858404	0.5892486	0.0100352
0.0898647	0.860139	0.00382552	0.0898647	37.3497	0.157057	0.0899693	0.794077	0.0361953	0.0884711	12.5905	0.0475471	0.0899693	0.842278	0.012529	0.0899693	0.526851	0.00990907
0.0940455	0.605581	0.00336362	0.0940455	26.4867	0.136423	0.0940982	0.729821	0.0371595	0.0926519	9.011417	0.0413832	0.0940982	0.840483	0.0127548	0.0940982	0.555675	0.010371
0.0982262	0.412561	0.00293069	0.0982262	18.3064	0.116938	0.0982272	0.731834	0.037584	0.0968326	6.36415	0.0352612	0.0982272	0.83589	0.0129194	0.0982272	0.5496697	0.0104765
0.102407	0.276564	0.00255235	0.102407	12.4885	0.0997785	0.102356	0.684682	0.0374864	0.101013	4.44629	0.0298504	0.102356	0.807169	0.0128418	0.102356	0.5407485	0.010511
0.106588	0.170776	0.0022051	0.106588	8.13439	0.083553	0.106485	0.801524	0.0375486	0.105194	3.06865	0.0250411	0.106485	0.822121	0.0130763	0.106485	0.501162	0.0102095
0.110768	0.115736	0.00203244	0.110768	5.79704	0.0749584	0.110614	0.797847	0.0380527	0.109375	2.15872	0.0210328	0.110614	0.8100228	0.0132782	0.110614	0.489648	0.0103237
0.114949	0.0801269	0.00192007	0.114949	4.11136	0.0686837	0.114743	0.640095	0.0391248	0.113556	1.69449	0.0203055	0.114743	0.7594654	0.0134228	0.114743	0.5097672	0.010997
0.11913	0.0573856	0.00178433	0.11913	3.19265	0.0620409	0.118872	0.680714	0.0387616	0.117736	1.31967	0.0172779	0.118872	0.7843563	0.0133333	0.118872	0.517616	0.0108314
0.123311	0.0538068	0.00172458	0.123311	3.04502	0.0598129	0.123001	0.684367	0.0376559	0.121917	1.229129	0.0164051	0.123001	0.765491	0.0129826	0.123001	0.495163	0.0104416
0.127491	0.0522	0.00169091	0.127491	3.06873	0.0586511	0.12713	0.81524	0.0374581	0.126098	1.17801	0.0158699	0.12713	0.7996611	0.0131229	0.12713	0.469942	0.01006
0.131672	0.0578873	0.00170206	0.131672	3.36055	0.0595573	0.131259	0.74241	0.0363107	0.130279	1.21111	0.0159282	0.131259	0.7568745	0.012642	0.131259	0.457891	0.00983296
0.135853	0.0622531	0.00170287	0.135853	3.45097	0.0599074	0.135388	0.700469	0.0357359	0.134459	1.26028	0.0160965	0.135388	0.739159	0.0123798	0.135388	0.4585503	0.00975074
0.140034	0.0710047	0.00185781	0.140034	3.78404	0.0662034	0.139516	0.721379	0.0384232	0.13864	1.3101	0.0172684	0.139516	0.7550247	0.0133664	0.139516	0.46594	0.0105003
# 0.144214	0.0726098	0.00193304	0.144214	3.82894	0.0688084	0.143645	0.731807	0.0394933	0.142821	1.40203	0.0185153	0.143645	0.7579849	0.0137719	0.143645	0.464191	0.0107774
# 0.148395	0.0704831	0.00195425	0.148395	3.81032	0.0697785	0.147774	0.616477	0.0401337	0.147002	1.37731	0.0189611	0.147774	0.714504	0.0138232	0.147774	0.471746	0.0112321
# 0.152576	0.0717247	0.00196943	0.152576	3.66048	0.0706109	0.151903	0.67529	0.0404609	0.151182	1.35513	0.0192803	0.151903	0.7122432	0.0140959	0.151903	0.4410794	0.0110927
# 0.156757	0.0639731	0.0020059	0.156757	3.56567	0.0711372	0.156032	0.747976	0.0418257	0.155363	1.2604	0.0190485	0.156032	0.73677	0.0147161	0.156032	0.4331611	0.0112837
# 0.160937	0.0551872	0.00219262	0.160937	3.07938	0.0770804	0.160161	0.670287	0.0466603	0.159544	1.22635	0.0206042	0.160161	0.7200047	0.0162936	0.160161	0.4519942	0.0129097
# 0.165118	0.0487657	0.00247277	0.165118	2.89076	0.0856479	0.16429	0.695418	0.0519957	0.163724	1.107783	0.0222727	0.16429	0.7168028	0.0183009	0.16429	0.436437	0.0142802
# 0.169299	0.0427103	0.00264726	0.169299	2.66742	0.0912644	0.168419	0.654322	0.0579938	0.167905	1.026867	0.0239009	0.168419	0.7134196	0.0203159	0.168419	0.452419	0.0161783
# 0.17348	0.0328503	0.00285866	0.17348	2.13943	0.0966321	0.172548	0.77019	0.0650763	0.172086	0.9192838	0.0252936	0.172548	0.744148	0.0231918	0.172548	0.430612	0.017642
# 0.17766	0.038848	0.00319464	0.17766	2.55692	0.109949	0.176677	0.75341	0.071215	0.176267	0.8688947	0.0276633	0.176677	0.7163133	0.0254732	0.176677	0.408108	0.0192274
# 0.181841	0.00959551	0.00326818	0.181841	1.25539	0.103459	0.180806	0.653737	0.0775391	0.180447	0.6938737	0.0278622	0.180806	0.654581	0.0275812	0.180806	0.388131	0.0212383
# #0.186022	-0.0254773	0.00289866	0.186022	-0.152537	0.0724167	0.184935	0.683031	0.0838123	0.184628	0.294564	0.0200055	0.184935	0.6477288	0.0300608	0.184935	0.3665724	0.0226143
# #0.190203	-0.0192646	0.00325212	0.190203	-0.266496	0.0847121	0.189064	0.61064	0.0958406	0.188809	0.1937751	0.0179732	0.189064	0.6666259	0.0337752	0.189064	0.422002	0.0268729
# #0.194383	-0.00510852	0.00304258	0.194383	-0.120522	0.0853034	0.193193	0.195397	0.0913947	0.19299	0.177568	0.0194406	0.193193	0.42696	0.030536	0.193193	0.357995	0.0279613
# #0.198564	0.00303726	0.00395163	0.198564	-0.257387	0.117713	0.197322	0.0556075	0.0922698	0.19717	0.1878866	0.0233482	0.197322	0.302359	0.0299986	0.197322	0.288251	0.0292904
# #0.202745	-0.00676967	0.00455357	0.202745	0.0216851	0.126546	0.20145	0.0522548	0.112224	0.201351	0.103868	0.021559	0.20145	0.290703	0.0365296	0.20145	0.2770675	0.0356626
# #0.206925	-0.0118875	0.00713752	0.206925	0.140204	0.187312	0.205579	0.0583433	0.174627	0.205532	0.08427983	0.0282528	0.205579	0.332112	0.0568003	0.205579	0.319592	0.0557191
# #0.209016	0.00611245	0.0159482	0.209016	-0.30461	0.488917	0.207644	0.376501	0.22578	0.207622	0.126954	0.0515879	0.207644	0.3219775	0.0832143	0.207644	0.1559977	0.057922

#SSDD Data
#q / A-1	I / cm-1	sI / cm-1	q_sample / A-1	I_sample / cm-1	sI_sample / cm-1	q_solvent / A-1	I_solvent / cm-1	sI_solvent / cm-1	q_raw_sample / A-1	I_raw_sample / a.u.	sI_raw_sample / a.u.	q_raw_solvent / A-1	I_raw_solvent / a.u.	sI_raw_solvent / a.u.	q_raw_ec / A-1	I_raw_ec / a.u.	sI_raw_ec / a.u.
#0.0128006	-0.019409	0.00144282	0.0128006	0.260548	0.0231136	0.0234492	0.970381	0.0507244	0.00142229	16.93385	0.780059	0.0234492	14.9261	0.538964	0.0234492	3.88613	0.275008
# 0.0298682	8.55438	0.0040954	0.0298682	363.631	0.171582	0.0400754	0.813041	0.0159069	0.0184898	1676.24	2.20416	0.0400754	13.0765	0.166934	0.0400754	3.87956	0.0909266
# 0.0469357	7.66164	0.0028053	0.0469357	325.678	0.118074	0.0567017	0.769919	0.0109432	0.0355573	10476.323	4.60753	0.0567017	12.4871	0.114569	0.0567017	3.78737	0.0630966
# 0.0640032	4.17131	0.00173656	0.0640032	177.68	0.0727541	0.0733279	0.74476	0.00944346	0.0526249	8202.401	3.02773	0.0733279	12.2971	0.0983993	0.0733279	3.90232	0.0554309
# 0.0810708	1.72258	0.00100354	0.0810708	73.87	0.0413521	0.0899542	0.737545	0.00866351	0.0696924	4134.76	1.83148	0.0899542	12.2409	0.0901461	0.0899542	3.93347	0.0511008
# 0.0981383	0.475927	0.000525788	0.0981383	20.9986	0.0202673	0.10658	0.724067	0.0079368	0.0867599	1515.19	0.983865	0.10658	12.1612	0.0823288	0.10658	4.01933	0.0473304
0.115206	0.0947521	0.000309452	0.115206	4.82952	0.00988928	0.123207	0.72879	0.00730601	0.103827	398.3841	0.458285	0.123207	12.1455	0.0759249	0.123207	3.941383	0.0432514
0.132273	0.0514451	0.000256826	0.132273	2.9809	0.00755971	0.139833	0.715931	0.00676266	0.120895	110.057	0.229897	0.139833	12.057	0.0700853	0.139833	4.009521	0.0404161
0.149341	0.0754234	0.000252878	0.149341	3.99205	0.00786933	0.156459	0.713115	0.00632347	0.137963	109.876	0.210448	0.156459	11.96794	0.0655821	0.156459	3.94805	0.0376675
0.166408	0.0688969	0.000234231	0.166408	3.71504	0.00721243	0.173085	0.713066	0.00621249	0.15503	132.215	0.216225	0.173085	11.9605	0.0644376	0.173085	3.940523	0.0369863
0.183476	0.0405619	0.000222366	0.183476	2.51049	0.00635713	0.189712	0.6991	0.00595934	0.172098	110.482	0.192905	0.189712	11.8789	0.0616087	0.189712	4.03053	0.0358869
0.200543	0.0184539	0.000190922	0.200543	1.55373	0.00500403	0.206338	0.697889	0.00555725	0.189165	73.59005	0.15182	0.206338	11.7972	0.057515	0.206338	3.9565	0.0333079
0.217611	0.0108399	0.000176262	0.217611	1.23116	0.00443079	0.222964	0.693462	0.00535431	0.206233	51.32346	0.118454	0.222964	11.7793	0.055343	0.222964	3.99375	0.032225
0.234679	0.0114804	0.000180802	0.234679	1.24313	0.00456835	0.23959	0.683152	0.00541456	0.2233	46.4866	0.108691	0.23959	11.73353	0.0558169	0.23959	4.076105	0.0328984
0.251746	0.0114652	0.000167502	0.251746	1.25884	0.00421913	0.256217	0.692704	0.00502538	0.240368	48.0911	0.110727	0.256217	11.7563	0.051944	0.256217	3.978252	0.0302167
0.268814	0.00902329	0.000158425	0.268814	1.14522	0.00394712	0.272843	0.681775	0.00482007	0.257435	46.5586	0.101689	0.272843	11.6451	0.0497371	0.272843	3.99673	0.0291382
0.285881	0.00616834	0.000150813	0.285881	1.0146	0.00368922	0.289469	0.682291	0.00466741	0.274503	42.54721	0.0934818	0.289469	11.7026	0.0481073	0.289469	4.05325	0.0283121
0.302949	0.00448919	0.000145125	0.302949	0.944434	0.00350743	0.306095	0.672225	0.00450812	0.29157	39.22821	0.0865633	0.306095	11.6102	0.0463819	0.306095	4.081265	0.0274996
0.320016	0.00400998	0.000140891	0.320016	0.928356	0.00339178	0.322722	0.672029	0.00435549	0.308638	37.8608	0.0822739	0.322722	11.5416	0.0448658	0.322722	4.00857	0.0264409
0.337084	0.00416932	0.000136722	0.337084	0.932666	0.00329429	0.339348	0.66934	0.00425305	0.325705	37.7715	0.079692	0.339348	11.5953	0.0437151	0.339348	4.10201	0.026001
0.354151	0.00352606	0.000133076	0.354151	0.910761	0.00319181	0.355974	0.679515	0.00417871	0.342773	37.5458	0.0771971	0.355974	11.6434	0.0430604	0.355974	4.02394	0.0253142
0.371219	0.00320318	0.000135583	0.371219	0.87789	0.00324061	0.372601	0.664724	0.00425205	0.35984	36.6583	0.076088	0.372601	11.4965	0.043722	0.372601	4.05293	0.0259599
0.388286	0.00273961	0.000142512	0.388286	0.863347	0.00339888	0.389227	0.669299	0.00447383	0.376908	35.9931	0.0781807	0.389227	11.5102	0.0460752	0.389227	4.00921	0.0271928
0.405354	0.00227804	0.000145345	0.405354	0.852525	0.00345519	0.405853	0.677133	0.00456961	0.393975	35.4883	0.0802341	0.405853	11.6558	0.0470549	0.405853	4.06822	0.0277994
0.422421	0.00260313	0.000146933	0.422421	0.851699	0.00350632	0.422479	0.664049	0.0046114	0.411043	35.45078	0.0814074	0.422479	11.5393	0.0473799	0.422479	4.10857	0.0282716
0.439489	0.00221872	0.000159129	0.439489	0.846443	0.00378636	0.439106	0.673938	0.00500087	0.42811	35.5126	0.0841815	0.439106	11.6624	0.0514472	0.439106	4.11652	0.0305656
0.456556	0.0021177	0.00015426	0.456556	0.849397	0.00366243	0.455732	0.68042	0.00485275	0.445178	35.1711	0.0867097	0.455732	11.6771	0.050018	0.455732	4.04937	0.0294545
0.473624	0.00220682	0.000154508	0.473624	0.8504	0.00367201	0.472358	0.677934	0.00485832	0.462246	35.3344	0.0859382	0.472358	11.6724	0.0500363	0.472358	4.07616	0.0295686
0.490691	0.00208123	0.000155028	0.490691	0.852693	0.00367849	0.488984	0.679468	0.00488217	0.479313	35.3946	0.0860435	0.488984	11.7338	0.0502467	0.488984	4.123807	0.0297877
0.507759	0.00223782	0.000156225	0.507759	0.855249	0.00371514	0.505611	0.687885	0.00490916	0.496381	35.5694	0.0864246	0.505611	11.83543	0.05057	0.505611	4.12706	0.0298622
0.524826	0.00239591	0.000155956	0.524826	0.86239	0.0037146	0.522237	0.689351	0.00490887	0.513448	35.9721	0.0870823	0.522237	11.9041	0.0505226	0.522237	4.183527	0.0299509
0.541894	0.00230773	0.000155038	0.541894	0.886926	0.00368134	0.538863	0.697537	0.00488101	0.530516	36.22579	0.0866026	0.538863	12.0012	0.0502791	0.538863	4.18484	0.0296903
0.558962	0.00244102	0.00015381	0.558962	0.88683	0.00365834	0.555489	0.704922	0.00486432	0.547583	36.68148	0.0863476	0.555489	12.1575	0.0500773	0.555489	4.261412	0.029648
0.576029	0.0023956	0.000153359	0.576029	0.894464	0.00364773	0.572116	0.707316	0.00481041	0.564651	37.0008	0.0853095	0.572116	12.2357	0.0494845	0.572116	4.316421	0.0293912
0.593097	0.00263526	0.000162281	0.593097	0.912649	0.00386071	0.588742	0.721464	0.00496276	0.581718	37.7402	0.0853631	0.588742	12.4886	0.0510487	0.588742	4.412099	0.0303424
0.610164	0.00273229	0.000171225	0.610164	0.941007	0.00407772	0.605368	0.729207	0.00531099	0.598786	38.4362	0.0921485	0.605368	12.6772	0.0545861	0.605368	4.51945	0.0325922
0.627232	0.00275969	0.000180134	0.627232	0.959086	0.0042852	0.621994	0.731743	0.00550608	0.615853	39.10289	0.0962274	0.621994	12.8212	0.0564926	0.621994	4.644832	0.0340026
0.644299	0.00303593	0.000210064	0.644299	0.972672	0.00501793	0.638621	0.759254	0.0063214	0.632921	39.8825	0.107004	0.638621	13.1456	0.0650615	0.638621	4.64713	0.0386835
0.661367	0.00322857	0.000237189	0.661367	0.997777	0.00567526	0.655247	0.765428	0.0071397	0.649988	40.8978	0.122688	0.655247	13.2859	0.0734558	0.655247	4.72168	0.0437903
0.678434	0.00347981	0.000270379	0.678434	1.02418	0.00648751	0.671873	0.786844	0.00810809	0.667056	41.7142	0.139516	0.671873	13.5836	0.0835417	0.671873	4.772934	0.0495209
0.695502	0.00324947	0.000319364	0.695502	1.03603	0.00759757	0.688499	0.790878	0.00933743	0.684123	42.6993	0.160879	0.688499	13.7625	0.0960403	0.688499	4.91738	0.057408
0.712569	0.00400001	0.000364418	0.712569	1.08146	0.00871249	0.705126	0.807134	0.0107538	0.701191	43.8568	0.186076	0.705126	14.1853	0.110362	0.705126	5.172317	0.0666415
0.729637	0.00387403	0.00039321	0.729637	1.10509	0.00940575	0.721752	0.826511	0.012143	0.718258	44.9457	0.214934	0.721752	14.3202	0.125049	0.721752	5.07116	0.074415
0.746704	0.00357442	0.00043142	0.746704	1.1394	0.0102855	0.738378	0.854136	0.0128692	0.735326	45.83026	0.227325	0.738378	14.755	0.132623	0.738378	5.19317	0.07868
0.763772	0.00389338	0.000476123	0.763772	1.16146	0.0113837	0.755004	0.911233	0.0142224	0.752394	46.6655	0.250096	0.755004	15.3577	0.147457	0.755004	5.12026	0.0851433
0.780839	0.00317766	0.000491442	0.780839	0.949877	0.0117967	0.771631	0.82234	0.0149483	0.769461	44.6699	0.270348	0.771631	13.8935	0.154898	0.771631	4.656554	0.089675
#0.797907	-0.000192243	0.000193261	0.797907	0.00266626	0.00481516	0.788257	0.715434	0.0158792	0.786529	39.27408	0.285733	0.788257	12.2601	0.163984	0.788257	4.238835	0.0964226
#0.814974	6.34441e-05	0.000230981	0.814974	0.00876603	0.00581532	0.804883	0.0320776	0.00628878	0.803596	2.61978	0.0859658	0.804883	1.13917	0.058209	0.804883	0.822251	0.0494534
#0.832042	-0.000378848	0.000287772	0.832042	0.00738547	0.00695074	0.821509	-0.0171484	0.00750216	0.820664	2.28225	0.0994269	0.821509	0.795029	0.0602541	0.821509	1.0776	0.0701492
#0.84911	-0.00029494	0.000674102	0.84911	0.00196765	0.0165392	0.838136	0.00525948	0.0105384	0.837731	3.06245	0.167158	0.838136	0.8651968	0.0912112	0.838136	0.8664554	0.0912777
#0.851954	-0.000856439	0.00123088	0.851954	0.0344254	0.0280746	0.840907	-0.021719	0.0129368	0.840576	2.350705	0.161998	0.840907	0.9059543	0.103284	0.840907	1.258101	0.121714