Folder: PhDThesis/data/monolayers/nanoparticles/Ol_CoFe_C/vsm/Backup/rescale (part 2)

File: DD67_FCw_LangevinSAXSscaled.xye
#Executed at: 2018-11-13 00:54:13.1732
#Loaded File	 = ../rawdata/DD172_6_FCW_100OE.DAT
#Rescale Factor	 = 0.0244316
#[[Data]]
#T/K	M/kAm-1	sM/kAm-1	M_raw/memu	sM_raw/memu
10.0052	4.15622	0.00854141	170.116	0.349604
10.013	4.16075	0.00872117	170.301	0.356962
10.5423	4.14931	0.00753048	169.834	0.308227
11.0185	4.15162	0.00836501	169.928	0.342384
11.5288	4.14551	0.00737352	169.678	0.301802
12.0056	4.14862	0.00882429	169.805	0.361183
12.5171	4.1447	0.00741037	169.645	0.30331
13.0476	4.15179	0.00920864	169.935	0.376915
13.5039	4.14466	0.00784829	169.643	0.321235
14.0201	4.14505	0.00786129	169.659	0.321767
14.5611	4.1617	0.00814965	170.34	0.333569
15.0107	4.15466	0.00850838	170.052	0.348252
15.5324	4.15935	0.00882603	170.244	0.361254
16.0213	4.14956	0.0086872	169.844	0.355572
16.5189	4.14816	0.00719419	169.786	0.294462
17.0051	4.15502	0.00646573	170.067	0.264645
17.5182	4.14639	0.0080104	169.714	0.32787
18.0209	4.15182	0.00778517	169.936	0.318651
18.546	4.14573	0.0100343	169.687	0.410709
19.0206	4.14531	0.00777218	169.67	0.318119
19.5058	4.14365	0.00956314	169.602	0.391424
20.7193	4.14267	0.00888767	169.562	0.363777
21.0652	4.14529	0.00892625	169.669	0.365356
21.5175	4.15462	0.00903577	170.051	0.369839
22.0174	4.15018	0.00759356	169.869	0.310808
22.5496	4.14162	0.00875308	169.519	0.358268
23.038	4.14595	0.0087803	169.696	0.359382
23.5066	4.14564	0.00721599	169.683	0.295354
24.0463	4.14398	0.00705496	169.615	0.288763
24.5325	4.14541	0.0076366	169.674	0.31257
25.0397	4.13956	0.00906604	169.434	0.371078
25.5029	4.1379	0.00849249	169.367	0.347602
26.0532	4.14637	0.0078083	169.713	0.319598
26.5503	4.14519	0.00860472	169.665	0.352196
27.0349	4.14662	0.00836866	169.723	0.342534
27.5247	4.14575	0.00694912	169.688	0.284431
28.049	4.14483	0.00860419	169.65	0.352174
28.5542	4.1475	0.00722898	169.759	0.295886
29.0603	4.14462	0.00696199	169.642	0.284958
29.5554	4.15136	0.00810261	169.917	0.331644
30.0032	4.14515	0.00660956	169.663	0.270533
31.1381	4.14692	0.00674804	169.736	0.276201
31.5172	4.14647	0.00674673	169.717	0.276147
32.0268	4.13903	0.00829623	169.413	0.339569
32.5474	4.14375	0.00659058	169.606	0.269756
33.0235	4.1352	0.00662703	169.256	0.271248
33.5146	4.13911	0.00768365	169.416	0.314496
34.049	4.14314	0.00724569	169.581	0.29657
34.5334	4.13893	0.00800573	169.408	0.327679
35.055	4.13148	0.00742392	169.103	0.303865
35.5435	4.13528	0.00814288	169.259	0.333292
36.0244	4.13176	0.00927589	169.115	0.379667
36.5343	4.13871	0.00846221	169.399	0.346363
37.0175	4.13703	0.00870728	169.331	0.356394
37.5024	4.14073	0.00889439	169.482	0.364052
38.0185	4.13869	0.00692087	169.399	0.283275
38.5646	4.13662	0.00794259	169.314	0.325094
39.0044	4.13291	0.00831543	169.162	0.340355
39.5086	4.13793	0.00853776	169.367	0.349455
40.052	4.13868	0.00861745	169.398	0.352717
40.5635	4.13183	0.00807926	169.118	0.330688
41.5251	4.13672	0.00889389	169.318	0.364032
42.0406	4.13427	0.00868247	169.218	0.355378
42.5537	4.13474	0.00770829	169.237	0.315504
43.0209	4.13744	0.00869096	169.347	0.355726
43.5005	4.13397	0.00802896	169.205	0.32863
44.0593	4.13378	0.00902074	169.198	0.369224
44.5042	4.13549	0.00786892	169.268	0.322079
45.0132	4.12785	0.00805038	168.955	0.329506
45.5161	4.12803	0.00852643	168.962	0.348991
46.0281	4.13637	0.00612974	169.304	0.250893
46.5304	4.12672	0.00761341	168.909	0.311621
47.0285	4.12506	0.00861976	168.841	0.352811
47.5392	4.12947	0.00890604	169.021	0.364529
48.0337	4.12694	0.00909072	168.918	0.372088
48.5377	4.13377	0.00901986	169.197	0.369188
49.0357	4.12642	0.00746635	168.897	0.305602
49.5481	4.13559	0.00686134	169.272	0.280838
50.0174	4.12751	0.00780005	168.941	0.31926
50.5417	4.12267	0.00710846	168.743	0.290953
51.0435	4.13332	0.0082775	169.179	0.338802
51.9085	4.13035	0.00926056	169.057	0.37904
52.0365	4.12354	0.00750838	168.778	0.307322
52.5013	4.12287	0.00817482	168.751	0.334599
53.051	4.12011	0.0085751	168.638	0.350983
53.5432	4.11081	0.00721352	168.258	0.295253
54.0433	4.1173	0.00714106	168.523	0.292287
54.514	4.11196	0.00767376	168.304	0.314091
55.0104	4.11179	0.00857903	168.298	0.351144
55.5252	4.11876	0.00862288	168.583	0.352939
56.0206	4.11454	0.00908092	168.41	0.371687
56.5303	4.11709	0.00818949	168.515	0.3352
57.0257	4.11752	0.00797167	168.532	0.326284
57.5407	4.11145	0.00707407	168.284	0.289545
58.0028	4.11745	0.00973563	168.529	0.398484
58.5216	4.11315	0.00943626	168.354	0.386231
59.0605	4.11113	0.00725835	168.271	0.297088
59.505	4.11195	0.00956883	168.304	0.391657
60.0056	4.11746	0.00810511	168.53	0.331746
60.5092	4.10915	0.00956675	168.19	0.391572
61.00634	4.10946	0.00746546	168.202	0.305565
61.5008	4.11267	0.00976288	168.334	0.3996
62.3554	4.11069	0.00896451	168.252	0.366922
62.5257	4.12215	0.00725032	168.722	0.296759
63.0414	4.11694	0.0085938	168.509	0.351748
63.5196	4.10971	0.0079888	168.213	0.326986
64.0125	4.10665	0.00810936	168.087	0.33192
64.5255	4.10974	0.00681286	168.214	0.278854
65.0183	4.11602	0.00740029	168.471	0.302898
65.5418	4.10482	0.00766567	168.012	0.31376
66.0462	4.09921	0.00640586	167.783	0.262195
66.5248	4.10579	0.00873849	168.052	0.357671
67.0768	4.11345	0.0079577	168.366	0.325713
67.5582	4.10494	0.00797884	168.017	0.326578
68.004	4.10477	0.00743893	168.01	0.304479
68.5724	4.10671	0.00896964	168.09	0.367132
69.0618	4.11011	0.00762683	168.229	0.31217
69.5428	4.10137	0.00848261	167.871	0.347197
70.0581	4.10682	0.0103336	168.094	0.422961
70.5648	4.09627	0.00863982	167.663	0.353632
71.0137	4.11002	0.00731155	168.225	0.299266
71.5299	4.10571	0.00734485	168.049	0.300628
72.7378	4.10534	0.00760769	168.034	0.311387
73.0516	4.103	0.00904914	167.938	0.370386
73.5532	4.09412	0.00956581	167.574	0.391533
74.0546	4.0963	0.00822547	167.664	0.336673
74.5604	4.10226	0.00737447	167.908	0.301841
75.0036	4.10134	0.00861707	167.87	0.352701
75.5546	4.09817	0.00834896	167.74	0.341727
76.0085	4.0939	0.00967916	167.565	0.396173
76.5046	4.09451	0.00814064	167.591	0.3332
77.0126	4.09153	0.00905285	167.468	0.370538
77.5098	4.08806	0.0092838	167.327	0.379991
78.027	4.09183	0.00842639	167.481	0.344897
78.522	4.09041	0.00907813	167.423	0.371573
79.0703	4.09533	0.00867743	167.624	0.355171
79.5648	4.0908	0.00814859	167.439	0.333526
80.037	4.08644	0.00914088	167.26	0.374141
80.6088	4.08783	0.0064236	167.317	0.262921
81.0706	4.09333	0.00737704	167.542	0.301946
81.5807	4.08657	0.00713335	167.266	0.291972
82.0258	4.09106	0.00723551	167.449	0.296153
83.3097	4.09322	0.00870606	167.537	0.356344
83.5339	4.0959	0.00886589	167.647	0.362885
84.0886	4.07699	0.00824276	166.873	0.33738
84.5592	4.08554	0.00755738	167.223	0.309327
85.0418	4.09634	0.0085736	167.665	0.350922
85.5235	4.09256	0.00863193	167.511	0.353309
86.0149	4.08284	0.0094916	167.113	0.388496
86.5263	4.09564	0.00822509	167.637	0.336657
87.0082	4.0898	0.0078681	167.398	0.322045
87.5772	4.08158	0.00816304	167.061	0.334118
88.0863	4.08164	0.00678939	167.063	0.277893
88.5657	4.08859	0.00808099	167.348	0.330759
89.0778	4.08469	0.0070821	167.189	0.289874
89.5694	4.08619	0.00803687	167.25	0.328953
90.0471	4.08428	0.00793077	167.172	0.324611
90.52742	4.08509	0.00788025	167.205	0.322543
91.0306	4.07934	0.00902136	166.969	0.369249
91.5146	4.08123	0.00816669	167.047	0.334267
92.0137	4.07675	0.00759041	166.863	0.310679
92.5092	4.08379	0.00742837	167.152	0.304047
93.7197	4.07526	0.00858392	166.803	0.351344
94.0466	4.08508	0.00766951	167.204	0.313917
94.5577	4.07851	0.00818866	166.935	0.335166
95.0578	4.08004	0.00783831	166.998	0.320826
95.5374	4.06983	0.00791205	166.58	0.323844
96.031	4.07888	0.00815417	166.951	0.333754
96.5118	4.08099	0.00743019	167.037	0.304122
97.0617	4.07842	0.00838329	166.932	0.343132
97.5731	4.07053	0.00852018	166.609	0.348736
98.0673	4.07183	0.00848574	166.662	0.347326
98.5125	4.0656	0.0104266	166.407	0.426766
99.0609	4.0792	0.00762217	166.964	0.311979
99.5504	4.07314	0.00791846	166.716	0.324107
100.009	4.07389	0.00770379	166.747	0.31532
100.527	4.069	0.00761396	166.546	0.311643
101.024	4.07447	0.00826993	166.77	0.338493
101.511	4.07231	0.00833664	166.682	0.341223
102.023	4.06825	0.00860256	166.516	0.352107
102.532	4.07567	0.0073651	166.819	0.301457
103.024	4.06889	0.00930778	166.542	0.380972
103.966	4.07225	0.00716715	166.679	0.293355
104.025	4.06844	0.00913014	166.523	0.373701
104.525	4.08063	0.00788156	167.022	0.322596
105.078	4.06988	0.00757325	166.582	0.309977
105.553	4.06388	0.00639054	166.337	0.261568
106.042	4.06314	0.00726451	166.306	0.29734
106.536	4.06223	0.00859028	166.269	0.351605
107.025	4.06589	0.00831831	166.419	0.340473
107.543	4.06247	0.00832428	166.279	0.340717
108.056	4.07458	0.00824252	166.775	0.337371
108.508	4.06276	0.00963685	166.291	0.394441
109.002	4.06794	0.00819317	166.503	0.335351
109.503	4.06229	0.00930139	166.271	0.380711
110.054	4.07319	0.00762257	166.718	0.311996
110.526	4.07258	0.00901831	166.693	0.369124
111.031	4.06253	0.00814945	166.281	0.333561
111.512	4.0748	0.00892714	166.784	0.365392
112.053	4.07189	0.00930919	166.664	0.38103
112.532	4.06251	0.00753504	166.281	0.308413
113.018	4.0587	0.00881967	166.125	0.360994
113.519	4.06541	0.00742866	166.4	0.304059
114.368	4.06604	0.00838679	166.425	0.343275
114.554	4.06612	0.00820969	166.428	0.336027
115.041	4.06621	0.00857805	166.432	0.351104
115.508	4.06385	0.00853064	166.335	0.349164
116.031	4.06945	0.00876399	166.565	0.358714
116.563	4.0643	0.0083381	166.354	0.341283
117.036	4.06118	0.0081594	166.226	0.333969
117.539	4.06038	0.00776921	166.194	0.317998
118.037	4.05339	0.00868086	165.907	0.355312

File: DD67_ZFC_LangevinSAXSscaled.xye
#Executed at: 2018-11-13 00:54:13.1572
#Loaded File	 = ../rawdata/DD172_6_ZFCw_100OE.DAT
#Rescale Factor	 = 0.0244316
#[[Data]]
#T/K	M/kAm-1	sM/kAm-1	M_raw/memu	sM_raw/memu
10.0076	0.116048	0.0080275	4.7499	0.32857
11.0628	0.113184	0.00868467	4.63267	0.355468
12.5212	0.123716	0.00708616	5.06378	0.29004
14.0219	0.116096	0.00637173	4.75185	0.260798
15.507	0.120319	0.00735113	4.92473	0.300886
17.0269	0.115838	0.00760669	4.74131	0.311346
18.5051	0.118689	0.00720316	4.85799	0.294829
20.0321	0.126807	0.00838795	5.19028	0.343323
21.5052	0.129724	0.00801859	5.30966	0.328205
23.0357	0.131163	0.00683612	5.36859	0.279806
24.5476	0.129642	0.00745481	5.3063	0.305129
26.0006	0.128958	0.00762478	5.2783	0.312086
27.5597	0.137076	0.00795393	5.6106	0.325558
29.0529	0.137376	0.00821896	5.62288	0.336406
31.295	0.139716	0.0086063	5.71865	0.35226
32.5209	0.143828	0.00750052	5.88695	0.307
34.0544	0.139529	0.00711442	5.71098	0.291197
35.5421	0.153996	0.00785117	6.30314	0.321353
37.0692	0.155394	0.00796229	6.36037	0.3259
38.5752	0.152049	0.00767915	6.22343	0.314312
40.0102	0.15277	0.00721392	6.25297	0.29527
42.0532	0.170804	0.00776509	6.99111	0.317829
43.5158	0.156244	0.00836469	6.39517	0.342371
45.0045	0.163522	0.00809873	6.69303	0.331485
46.5639	0.159675	0.00850319	6.53557	0.34804
48.0317	0.170991	0.00583215	6.99874	0.238713
49.5138	0.166552	0.00853463	6.81705	0.349327
51.0028	0.167813	0.00727772	6.86866	0.297881
53.0339	0.176242	0.00740407	7.21368	0.303052
54.5349	0.175019	0.00793358	7.16363	0.324726
56.005	0.183118	0.00840593	7.49511	0.344059
57.5772	0.184578	0.00813681	7.55489	0.333044
59.0519	0.177962	0.00835044	7.28408	0.341788
60.5322	0.178561	0.00796871	7.30859	0.326163
62.5424	0.18223	0.00746311	7.45877	0.305469
64.0113	0.186052	0.00766459	7.6152	0.313715
65.5005	0.18659	0.00709046	7.63724	0.290216
67.0021	0.189777	0.007911	7.76766	0.323801
68.52034	0.192547	0.00816113	7.88106	0.334039
70.0246	0.197697	0.00856208	8.09185	0.35045
71.5175	0.200677	0.00823399	8.21383	0.337022
73.0354	0.206596	0.00984043	8.45609	0.402774
74.5381	0.199369	0.00819121	8.16026	0.33527
76.0242	0.209827	0.00789407	8.58831	0.323109
77.5137	0.210492	0.00716728	8.61554	0.293361
79.0392	0.217566	0.00871907	8.9051	0.356876
80.5616	0.21508	0.00710286	8.80332	0.290724
82.0656	0.220819	0.00712934	9.03825	0.291808
84.0047	0.229361	0.00748076	9.38787	0.306191
85.5694	0.229233	0.00729019	9.38262	0.298391
87.0449	0.225311	0.00906338	9.22209	0.370969
88.5373	0.240805	0.00717451	9.85628	0.293657
90.0482	0.226789	0.00799472	9.28257	0.327228
91.5101	0.248164	0.00736018	10.1575	0.301256
93.974	0.256862	0.00776266	10.5135	0.31773
95.0115	0.244878	0.00789501	10.023	0.323147
96.5463	0.251252	0.00936779	10.2839	0.383429
98.0322	0.258288	0.0108455	10.5719	0.443913
99.5459	0.262078	0.00778819	10.727	0.318775
101.028	0.267158	0.00895898	10.9349	0.366696
102.523	0.259122	0.00838897	10.606	0.343365
104.531	0.275705	0.00896823	11.2847	0.367074
106.016	0.278264	0.00994512	11.3895	0.407059
107.5	0.283787	0.00869964	11.6155	0.356081
109.03	0.28557	0.00839619	11.6885	0.34366
110.533	0.298722	0.00788288	12.2268	0.32265
112.05	0.298943	0.00797263	12.2359	0.326324
113.518	0.306944	0.00811921	12.5634	0.332324
115.508	0.302625	0.00808889	12.3866	0.331082
117.026	0.317808	0.00801896	13.008	0.32822
118.504	0.320727	0.00893758	13.1275	0.36582
120.009	0.327024	0.0080518	13.3853	0.329564
121.561	0.332053	0.00908544	13.5911	0.371872
123.023	0.336368	0.00810257	13.7677	0.331642
125.027	0.351184	0.00843926	14.3741	0.345423
126.512	0.359955	0.00733143	14.7331	0.300079
128.005	0.360437	0.00933738	14.7529	0.382184
129.529	0.374729	0.00807375	15.3378	0.330463
131.054	0.384858	0.00896657	15.7524	0.367006
132.561	0.402095	0.00925404	16.458	0.378773
134.052	0.414811	0.00865973	16.9784	0.354447
135.524	0.427075	0.00728227	17.4804	0.298067
137.057	0.441241	0.00861612	18.0602	0.352662
138.501	0.451057	0.00756924	18.462	0.309813
140.029	0.462509	0.00778691	18.9307	0.318722
141.502	0.489364	0.00742234	20.0299	0.3038
143.028	0.507585	0.00774457	20.7757	0.316989
144.514	0.530963	0.00722696	21.7326	0.295803
146.532	0.561438	0.00728434	22.9799	0.298152
148.003	0.592418	0.00768723	24.248	0.314642
149.542	0.629354	0.00889791	25.7598	0.364196
151.048	0.653352	0.00729436	26.742	0.298562
152.52	0.694759	0.00893292	28.4368	0.365629
154.049	0.72407	0.00958312	29.6366	0.392242
156.16	0.795436	0.00710489	32.5576	0.290807
157.501	0.825684	0.00894198	33.7957	0.366
159.033	0.888363	0.00860493	36.3611	0.352204
160.533	0.925413	0.00884041	37.8776	0.361843
162.025	0.987928	0.00985483	40.4364	0.403363
163.521	1.044	0.0083535	42.7315	0.341913
165.021	1.09153	0.00881608	44.677	0.360847
167.007	1.18327	0.00890781	48.432	0.364601
168.501	1.24079	0.00896729	50.7862	0.367036
170.008	1.30197	0.00713213	53.2902	0.291922
171.518	1.37485	0.00822432	56.2733	0.336626
173.041	1.44969	0.00855944	59.3366	0.350342
174.544	1.51319	0.00911476	61.9358	0.373072
176.006	1.58842	0.00820914	65.0148	0.336004
178.002	1.68652	0.00757992	69.0303	0.31025
179.513	1.74826	0.00883259	71.557	0.361523
181.056	1.82938	0.00902519	74.8774	0.369406
182.53	1.90764	0.00912174	78.0807	0.373357
184.006	1.9737	0.0093552	80.7846	0.382913
185.549	2.04177	0.00851885	83.5708	0.348681
187.498	2.14286	0.00956651	87.7085	0.391562
188.543	2.17777	0.00833354	89.1372	0.341096
190.009	2.23994	0.00911945	91.6819	0.373264
191.527	2.30678	0.0080214	94.4179	0.32832
193.066	2.37369	0.00991933	97.1563	0.406003
194.518	2.41369	0.00929177	98.7938	0.380317
196.003	2.47693	0.00981864	101.382	0.401882
197.877	2.54779	0.00711992	104.283	0.291422
199.026	2.58503	0.00961867	105.807	0.393697
200.5	2.62232	0.0100899	107.333	0.412984
202.005	2.66195	0.0102089	108.955	0.417854
203.549	2.70249	0.0107815	110.614	0.441294
205.026	2.7289	0.00945477	111.695	0.386989
206.549	2.75807	0.00934872	112.889	0.382648
208.518	2.79385	0.00929738	114.354	0.380546
210.037	2.81552	0.008776	115.241	0.359206
211.517	2.83245	0.0104953	115.934	0.429579
213.019	2.84696	0.00903709	116.528	0.369893
214.553	2.84657	0.00953986	116.511	0.390471
216.015	2.85681	0.0114795	116.931	0.469864
217.551	2.85302	0.00886635	116.776	0.362904
219.5	2.85603	0.0110224	116.899	0.451152
221.017	2.83822	0.00991787	116.17	0.405943
222.523	2.85098	0.00905347	116.692	0.370563
224.051	2.83439	0.00943722	116.013	0.38627
225.509	2.8186	0.0100611	115.367	0.411805
227.062	2.81682	0.00955181	115.294	0.390961
229.121	2.79697	0.00984969	114.481	0.403153
230.541	2.77445	0.00917648	113.56	0.375598
232.061	2.76382	0.0109078	113.124	0.446463
233.523	2.74581	0.0111117	112.388	0.454806
235.054	2.73688	0.00863887	112.022	0.353593
236.551	2.69748	0.00905335	110.409	0.370558
238.054	2.67841	0.00836008	109.629	0.342182
240.042	2.65047	0.00914393	108.485	0.374266
241.553	2.63366	0.0100944	107.797	0.41317
243.044	2.59673	0.00824078	106.285	0.337299
244.507	2.57921	0.0113585	105.569	0.464908
246.003	2.55329	0.00948467	104.507	0.388212
247.516	2.53329	0.00994181	103.689	0.406923
249.053	2.49647	0.00998133	102.182	0.408541
251.019	2.46703	0.00855492	100.977	0.350157
252.529	2.44064	0.0100294	99.8966	0.410508
254.023	2.41424	0.0101789	98.8162	0.416629
255.501	2.39221	0.00860739	97.9142	0.352305
257.035	2.36414	0.00911497	96.7653	0.373081
258.506	2.34803	0.0097743	96.1061	0.400067
260.403	2.32452	0.00809213	95.144	0.331215
261.544	2.30646	0.00980132	94.4044	0.401173
263.06	2.26131	0.0105209	92.5566	0.430627
264.509	2.25285	0.00767232	92.2103	0.314032
266.057	2.21657	0.00998508	90.7252	0.408695
267.524	2.20697	0.0103346	90.3325	0.423001
269.002	2.17454	0.010008	89.0049	0.409633
271.052	2.15583	0.0102099	88.2391	0.417896
272.548	2.11651	0.0113963	86.6297	0.466455
274.043	2.10501	0.0108953	86.1591	0.44595
275.52	2.08161	0.00929218	85.2013	0.380334
277.049	2.05933	0.00948966	84.2896	0.388417
278.543	2.03189	0.010082	83.1664	0.412662
280.061	2.01422	0.00929351	82.4429	0.380388
282.035	1.98795	0.0107877	81.3676	0.441544
283.508	1.96365	0.008877	80.3733	0.36334
285.008	1.95603	0.00881694	80.0614	0.360882
286.504	1.92972	0.0102906	78.9846	0.421201
288.041	1.89892	0.0115938	77.7237	0.47454
289.506	1.88293	0.0103864	77.0694	0.425119
291.592	1.86927	0.00972246	76.5102	0.397945
293.025	1.84798	0.0112524	75.6388	0.460566
294.559	1.80953	0.00984135	74.0652	0.402811
296.042	1.79357	0.0108912	73.4118	0.445784
297.529	1.7758	0.00947927	72.6845	0.387991
299.059	1.7569	0.0102557	71.9106	0.419772
300.507	1.74377	0.00975935	71.3732	0.399455
302.043	1.72979	0.0107307	70.801	0.439214
303.544	1.72597	0.0101275	70.6448	0.414522
305.025	1.68921	0.0103126	69.1404	0.422101
306.53	1.68654	0.00993796	69.031	0.406766
308.039	1.65283	0.0115103	67.6513	0.471123
309.508	1.64394	0.0104689	67.2873	0.428496
311.053	1.62281	0.0108286	66.4225	0.443219
312.516	1.61733	0.0129299	66.1983	0.529226
314.022	1.60446	0.012426	65.6712	0.508601
315.551	1.5712	0.0116253	64.31	0.475831
317.011	1.55693	0.009499	63.726	0.388799
318.516	1.53804	0.00843375	62.9527	0.345198
320.095	1.52813	0.00909898	62.5471	0.372426
321.516	1.50448	0.0126085	61.5792	0.516073
323.502	1.49172	0.0106119	61.057	0.434352
325.041	1.46022	0.0123794	59.7676	0.506696
326.517	1.45389	0.0108896	59.5083	0.445717
328.051	1.44357	0.0104994	59.086	0.429746
329.504	1.43084	0.0106622	58.5651	0.436408
331.023	1.4139	0.0119254	57.8718	0.488112
333.263	1.38972	0.0134748	56.882	0.551531
334.528	1.38939	0.0113986	56.8684	0.466551
336.01	1.37937	0.0109993	56.4584	0.450208
337.518	1.34648	0.0109336	55.112	0.447517
339.022	1.33469	0.0112143	54.6296	0.459008
340.525	1.32428	0.0125133	54.2035	0.512174
342.011	1.31615	0.0097548	53.8708	0.399269
344.014	1.31251	0.0113619	53.7215	0.465046
345.546	1.27821	0.00923637	52.3178	0.378049
347.006	1.2793	0.0123891	52.3625	0.507093
348.508	1.26373	0.0112088	51.7253	0.458783
349.752	1.24278	0.0117481	50.8675	0.480856