Folder: PhDThesis/data/monolayers/nanoparticles/Ol_CoFe_C/vsm/Backup/rescale

Note: README.md
# PhDThesis

Color palette:
- #0EA8DF #MatNat Blau
- #EE292F #Medizin Rot
- #FAAB2D #HumWis Orange
- #76C152 #Wiwi Gruen
- #7F0128 #Rechtswis Bordeaux
- #793394 #Philo Violett

Sample Translation
- Ol-CoFe-C : DD67
- Ac-CoFe-C : AH11
- Ac-CoFe-C-YF : YF45

File: DD67_10K_LangevinSAXSscaled.xye
#Executed at: 2018-11-13 00:54:13.8946
#Loaded File	 = ../rawdata/DD172_6_HYST_10K.DAT
#Rescale Factor	 = 0.0244316
#[[Data]]
#B/T	M/kAm-1	sM/kAm-1	M_raw/memu	sM_raw/memu
-4.11042e-05	-0.520326	0.00918752	-21.2972	0.37605
0.256674	3.14209	0.00796334	128.607	0.325944
0.511725	6.8715	0.00782822	281.254	0.320413
0.763753	10.7655	0.00926953	440.636	0.379407
1.02144	14.96	0.00882033	612.321	0.36102
1.27629	19.3887	0.0107349	793.589	0.439383
1.50916	23.6797	0.0113848	969.221	0.465987
1.73667	28.1683	0.0105969	1152.94	0.433736
1.96316	32.9567	0.0125961	1348.94	0.515564
2.18965	38.0323	0.0103259	1556.68	0.422643
2.41868	43.4309	0.0133655	1777.65	0.547057
2.65291	49.2073	0.0143432	2014.08	0.587073
2.88285	54.985	0.0178016	2250.57	0.728627
3.13422	61.3533	0.0176101	2511.22	0.720789
3.38109	67.6068	0.0116312	2767.18	0.476072
3.62757	73.6286	0.0246672	3013.66	1.00964
3.88053	79.5545	0.0170585	3256.21	0.698211
4.12555	84.9923	0.0174867	3478.78	0.715738
4.37229	90.1787	0.0225441	3691.06	0.92274
4.6212	95.036	0.0205509	3889.87	0.841157
4.86855	99.5204	0.020331	4073.42	0.832157
5.11995	103.713	0.0243733	4245.04	0.99761
5.37007	107.588	0.0231857	4403.63	0.949003
5.61716	111.089	0.0201007	4546.93	0.822734
5.86795	114.434	0.0210235	4683.86	0.860504
6.11266	117.478	0.0211012	4808.45	0.863681
6.36171	120.318	0.0259849	4924.66	1.06358
6.61295	123.012	0.0244007	5034.93	0.998732
6.86946	125.595	0.023155	5140.66	0.947747
7.11882	127.914	0.0210701	5235.57	0.862412
7.37642	130.198	0.0250114	5329.07	1.02373
7.63677	132.355	0.0222645	5417.37	0.911298
7.89325	134.352	0.0283417	5499.08	1.16004
8.1498	136.334	0.028072	5580.24	1.149
8.41029	138.084	0.0249307	5651.86	1.02043
8.64671	139.725	0.0284431	5719.02	1.16419
8.88522	141.189	0.0281088	5778.94	1.15051
8.87863	141.35	0.0354106	5785.53	1.44938
8.64236	140.044	0.0225099	5732.07	0.921344
8.39989	138.691	0.0317323	5676.68	1.29882
8.13975	137.223	0.0254283	5616.61	1.04079
7.88494	135.735	0.0195821	5555.71	0.801506
7.62529	134.099	0.0226937	5488.74	0.928863
7.36122	132.452	0.0212842	5421.31	0.871174
7.1072	130.779	0.0248429	5352.86	1.01683
6.84384	129.015	0.0219866	5280.63	0.899923
6.58568	127.123	0.0187505	5203.21	0.767466
6.31961	125.218	0.0238428	5125.24	0.9759
6.06054	123.208	0.0273861	5042.98	1.12093
5.80319	121.16	0.0225559	4959.13	0.923224
5.54515	119.019	0.0237812	4871.53	0.973377
5.28741	116.844	0.0265445	4782.49	1.08648
5.02771	114.444	0.0172607	4684.27	0.70649
4.76634	112.022	0.0201143	4585.11	0.823289
4.51647	109.549	0.0157426	4483.88	0.644355
4.2692	106.966	0.0224656	4378.19	0.91953
4.0216	104.302	0.0190081	4269.14	0.778012
3.77146	101.444	0.0260014	4152.15	1.06425
3.52522	98.5093	0.0187228	4032.04	0.766335
3.27412	95.324	0.014864	3901.66	0.608391
3.02237	91.9769	0.0172349	3764.66	0.705433
2.77181	88.4879	0.0158872	3621.86	0.650272
2.51964	84.7719	0.012654	3469.76	0.517934
2.27055	80.895	0.0152178	3311.07	0.622872
2.02338	76.7867	0.0126113	3142.92	0.516186
1.77032	72.4083	0.0115628	2963.71	0.473272
1.52396	67.8535	0.0123074	2777.28	0.503748
1.28232	63.1716	0.0138234	2585.65	0.565801
1.03783	58.2624	0.0107193	2384.71	0.438744
0.792315	53.0616	0.0102896	2171.84	0.421159
0.545836	47.5482	0.0101838	1946.17	0.416828
0.298197	41.8011	0.00922513	1710.94	0.377589
0.0510392	35.823	0.0110864	1466.26	0.453774
-0.183267	29.9025	0.00780048	1223.93	0.319278
-0.428521	23.5288	0.00838208	963.046	0.343083
-0.678687	16.903	0.00973402	691.85	0.398419
-0.927128	10.1497	0.00925572	415.433	0.378841
-1.17846	3.04535	0.0110778	124.648	0.45342
-1.42699	-4.14168	0.00996024	-169.521	0.407678
-1.67578	-11.595	0.00956421	-474.591	0.391468
-1.92208	-19.1745	0.0121035	-784.824	0.495403
-2.16544	-26.7336	0.011798	-1094.22	0.482897
-2.41292	-34.5249	0.0137635	-1413.12	0.563345
-2.65814	-42.2343	0.0121803	-1728.67	0.498545
-2.89006	-49.4489	0.0158535	-2023.97	0.648891
-3.12256	-56.429	0.0149001	-2309.67	0.609867
-3.35354	-63.1203	0.014924	-2583.55	0.610847
-3.57964	-69.3202	0.0152639	-2837.31	0.62476
-3.80463	-75.1162	0.0160161	-3074.54	0.655548
-4.02791	-80.5732	0.0165732	-3297.9	0.67835
-4.25326	-85.6108	0.0175524	-3504.09	0.718431
-4.4802	-90.3402	0.0175952	-3697.67	0.720182
-4.7033	-94.6778	0.0190936	-3875.21	0.781511
-4.93169	-98.7943	0.0168672	-4043.7	0.690385
-5.16402	-102.603	0.0170013	-4199.61	0.695872
-5.39689	-106.16	0.0158719	-4345.17	0.649643
-5.62701	-109.464	0.0183298	-4480.4	0.750249
-5.86375	-112.57	0.0223981	-4607.55	0.916764
-6.0906	-115.325	0.0228169	-4720.32	0.933909
-6.33065	-118.102	0.0237649	-4833.96	0.972708
-6.56037	-120.552	0.0214987	-4934.26	0.879955
-6.79027	-122.867	0.0250483	-5029	1.02524
-7.02592	-125.1	0.0175919	-5120.42	0.720044
-7.26517	-127.257	0.0232923	-5208.68	0.953365
-7.5105	-129.309	0.0270416	-5292.7	1.10682
-7.76623	-131.36	0.0219876	-5376.65	0.899962
-8.02294	-133.301	0.0224984	-5456.07	0.920872
-8.28256	-135.153	0.0212022	-5531.87	0.867816
-8.53081	-136.838	0.0278269	-5600.86	1.13897
-8.77313	-138.379	0.024434	-5663.91	1.0001
-8.98802	-139.804	0.0263879	-5722.24	1.08007
-8.74749	-138.629	0.0291824	-5674.16	1.19445
-8.50192	-137.371	0.0244529	-5622.68	1.00087
-8.24794	-136.057	0.0242229	-5568.87	0.991457
-7.98966	-134.622	0.0239505	-5510.16	0.980308
-7.72844	-133.163	0.0195296	-5450.42	0.799357
-7.46736	-131.606	0.0207616	-5386.71	0.849782
-7.21393	-130.042	0.0277158	-5322.69	1.13442
-6.98305	-128.628	0.0307401	-5264.82	1.25821
-6.7525	-127.09	0.0205629	-5201.85	0.84165
-6.51885	-125.536	0.024722	-5138.25	1.01188
-6.28862	-123.943	0.0334289	-5073.05	1.36826
-6.04761	-122.166	0.0190813	-5000.32	0.781007
-5.81525	-120.463	0.0215768	-4930.62	0.883151
-5.5872	-118.686	0.0174653	-4857.88	0.714863
-5.34964	-116.767	0.0205845	-4779.34	0.842534
-5.11195	-114.783	0.0194446	-4698.11	0.795878
-4.87419	-112.69	0.0193028	-4612.45	0.790073
-4.63819	-110.531	0.0202267	-4524.08	0.827889
-4.4023	-108.269	0.0139643	-4431.5	0.571565
-4.16986	-105.894	0.0180812	-4334.31	0.740073
-3.94944	-103.592	0.017516	-4240.07	0.716941
-3.71858	-101.088	0.0179972	-4137.58	0.736634
-3.49133	-98.4215	0.0182387	-4028.44	0.746519
-3.26001	-95.6172	0.0157004	-3913.66	0.642624
-3.03232	-92.7275	0.0222256	-3795.38	0.909705
-2.80139	-89.6228	0.0131488	-3668.31	0.538187
-2.56887	-86.3445	0.0119788	-3534.12	0.4903
-2.33702	-82.8759	0.0124932	-3392.15	0.511354
-2.11065	-79.3524	0.0120534	-3247.93	0.49335
-1.8809	-75.5647	0.0131142	-3092.9	0.536772
-1.65144	-71.5557	0.0130362	-2928.81	0.533578
-1.42793	-67.4441	0.0102082	-2760.52	0.417826
-1.19989	-63.0559	0.0102488	-2580.91	0.41949
-0.972865	-58.4354	0.00923042	-2391.79	0.377806
-0.754456	-53.8064	0.0104523	-2202.33	0.427816
-0.532694	-48.8246	0.0104622	-1998.41	0.428222
-0.308113	-43.5501	0.00846984	-1782.53	0.346675
-0.0822008	-37.9516	0.00747727	-1553.38	0.306049
0.141453	-32.1722	0.00884482	-1316.83	0.362023
0.361936	-26.2141	0.00810101	-1072.96	0.331579
0.581165	-20.1752	0.0087604	-825.781	0.358568
0.809165	-13.5525	0.0101751	-554.711	0.416472
1.02739	-7.04296	0.0091725	-288.272	0.375435
1.25202	-0.0884907	0.0104487	-3.62197	0.427671
1.47862	7.19341	0.0113955	294.43	0.466423
1.70564	14.659	0.0126207	600.002	0.516572
1.92552	21.9848	0.0109458	899.85	0.448016
2.1479	29.464	0.014905	1205.98	0.610069
2.37445	36.9884	0.0144413	1513.95	0.591088
2.59654	44.2976	0.0138904	1813.13	0.568542
2.81899	51.4276	0.0123203	2104.96	0.504275
3.03991	58.1469	0.0181859	2379.98	0.744359
3.26488	64.6322	0.0173845	2645.43	0.711556
3.48952	70.7174	0.0191466	2894.5	0.78368
3.71466	76.3692	0.0165183	3125.83	0.676103
3.93899	81.6256	0.019405	3340.98	0.794259
4.16091	86.4431	0.0161232	3538.16	0.659932
4.38416	90.8833	0.0206482	3719.9	0.845141
4.60834	95.0457	0.018258	3890.27	0.747309
4.83034	98.8425	0.0171999	4045.68	0.704
5.05423	102.371	0.0235796	4190.12	0.965125
5.27634	105.647	0.0179436	4324.19	0.73444
5.51033	108.808	0.0222543	4453.56	0.910879
5.73835	111.733	0.0180877	4573.27	0.740341
5.96201	114.356	0.0268551	4680.65	1.09919
6.1885	116.911	0.0194352	4785.25	0.795492
6.4157	119.328	0.0229055	4884.16	0.937532
6.64444	121.56	0.0220791	4975.52	0.903709
6.87047	123.694	0.0246185	5062.87	1.00765
7.09586	125.652	0.0236207	5143.01	0.966809
7.32155	127.55	0.0241196	5220.67	0.987228
7.55362	129.445	0.0295582	5298.25	1.20983
7.78017	131.169	0.0208042	5368.83	0.851527
8.00408	132.772	0.0192076	5434.42	0.786175
8.22744	134.324	0.0263164	5497.93	1.07714
8.45693	135.886	0.0367226	5561.89	1.50308
8.66803	137.288	0.0313804	5619.29	1.28442
8.87675	138.604	0.0268158	5673.15	1.09759
8.91859	139.029	0.0321156	5690.52	1.31451
8.71204	137.998	0.0273027	5648.34	1.11751
8.49952	136.952	0.0295608	5605.5	1.20994
8.27658	135.766	0.0226873	5556.96	0.928601
8.05117	134.478	0.0273259	5504.25	1.11846
7.82003	133.262	0.0251343	5454.49	1.02876
7.58713	131.94	0.0220238	5400.35	0.901445
7.35944	130.586	0.0314867	5344.97	1.28877
7.12778	129.175	0.0272474	5287.21	1.11525
6.8923	127.669	0.0263418	5225.54	1.07818
6.65813	126.135	0.0185194	5162.77	0.758007
6.42239	124.559	0.0195821	5098.27	0.801506
6.18465	122.896	0.0250416	5030.2	1.02497
5.9517	121.173	0.0203472	4959.68	0.832822
5.72141	119.438	0.0260468	4888.65	1.06611
5.49067	117.636	0.0245626	4814.9	1.00536
5.26365	115.763	0.0271144	4738.22	1.10981
5.0348	113.811	0.0189277	4658.34	0.774719
4.80465	111.798	0.021064	4575.94	0.86216
4.56789	109.596	0.020045	4485.81	0.820452
4.33861	107.376	0.0198752	4394.94	0.813503
4.11015	105.09	0.0190561	4301.4	0.779978
3.882	102.653	0.0188505	4201.65	0.771562
3.65468	100.131	0.0197452	4098.41	0.808183
3.42887	97.5245	0.0183553	3991.73	0.751293
3.208	94.8404	0.0172758	3881.87	0.707108
2.98351	91.9666	0.0126787	3764.24	0.518946
2.75701	88.9231	0.0173818	3639.67	0.711445
2.53709	85.8015	0.0163209	3511.9	0.668021
2.31163	82.4305	0.01066	3373.92	0.436318
2.08846	78.937	0.0140046	3230.93	0.573217
1.86324	75.2263	0.0124119	3079.05	0.508026
1.64624	71.4543	0.0124019	2924.66	0.507617
1.42611	67.4403	0.0130719	2760.37	0.535038
1.2056	63.2147	0.0130235	2587.41	0.53306
0.985854	58.7419	0.0109181	2404.34	0.446884
0.768797	54.1332	0.0109326	2215.7	0.447477
0.549965	49.2978	0.0117493	2017.79	0.480903
0.331133	44.1457	0.008871	1806.9	0.363095
0.111861	38.8331	0.0105428	1589.46	0.431522
-2.66416e-05	35.924	0.00869523	1470.39	0.3559

File: DD67_300K_LangevinSAXSscaled.xye
#Executed at: 2018-11-13 00:54:13.4953
#Loaded File	 = ../rawdata/DD172_6_HYST_300K.DAT
#Rescale Factor	 = 0.0244316
#[[Data]]
#B/T	M/kAm-1	sM/kAm-1	M_raw/memu	sM_raw/memu
1.2179e-05	-0.317632	0.0107017	-13.0009	0.438027
0.211585	22.3021	0.0130356	912.835	0.533554
0.433699	33.5238	0.0120115	1372.15	0.491635
0.654138	41.6712	0.0142742	1705.62	0.584252
0.874006	48.328	0.0174515	1978.09	0.7143
1.0952	54.0373	0.0210462	2211.77	0.861431
1.32391	59.2174	0.0287242	2423.8	1.1757
1.54762	63.709	0.0258299	2607.64	1.05723
1.77033	67.6985	0.0293154	2770.93	1.1999
1.9891	71.2386	0.0337203	2915.83	1.38019
2.20369	74.47	0.0421224	3048.09	1.72409
2.43136	77.6525	0.0275205	3178.36	1.12643
2.66126	80.6351	0.0408671	3300.44	1.67271
2.89215	83.4815	0.0471402	3416.94	1.92947
3.12295	86.0814	0.048072	3523.36	1.96761
3.34803	88.5491	0.0435081	3624.36	1.78081
3.57742	90.8264	0.0531393	3717.57	2.17502
3.812175	93.0933	0.0557523	3810.36	2.28197
4.04144	95.2236	0.0569073	3897.55	2.32924
4.28004	97.347	0.0579756	3984.46	2.37297
4.51173	99.2961	0.0568752	4064.24	2.32793
4.73647	101.127	0.0671647	4139.2	2.74909
4.96374	102.857	0.0611545	4209.98	2.50308
5.20248	104.631	0.08382	4282.62	3.4308
5.42861	106.298	0.0531272	4350.82	2.17452
5.65613	107.854	0.0780625	4414.51	3.19514
5.88916	109.445	0.0652798	4479.63	2.67194
6.13524	111.06	0.0744835	4545.73	3.04865
6.37356	112.547	0.0879715	4606.6	3.60072
6.60568	113.968	0.0891535	4664.78	3.6491
6.8448	115.373	0.0928311	4722.27	3.79963
7.08618	116.694	0.0870225	4776.33	3.56188
7.32422	118.032	0.103474	4831.12	4.23526
7.56306	119.349	0.0987846	4885.02	4.04331
7.79728	120.589	0.109491	4935.78	4.48151
8.02957	121.83	0.100167	4986.58	4.09988
8.25948	123.011	0.105982	5034.92	4.3379
8.48936	124.105	0.106845	5079.67	4.37324
8.71279	125.165	0.131925	5123.07	5.39974
8.93506	126.223	0.118877	5166.39	4.8657
8.8521	125.838	0.0970497	5150.63	3.97229
8.62798	124.819	0.0986913	5108.92	4.03948
8.41312	123.766	0.10616	5065.81	4.34518
8.17986	122.647	0.114897	5020.01	4.7028
7.9475	121.424	0.0978374	4969.96	4.00454
7.71523	120.283	0.087161	4923.25	3.56755
7.48725	119.03	0.0956072	4871.97	3.91325
7.25736	117.717	0.0948852	4818.21	3.8837
7.02393	116.406	0.080607	4764.54	3.29929
6.79195	115.116	0.0771132	4711.75	3.15628
6.56666	113.718	0.0889726	4654.55	3.6417
6.32868	112.302	0.0948332	4596.56	3.88157
6.09323	110.783	0.0734244	4534.41	3.0053
5.85389	109.259	0.0858006	4472.03	3.51186
5.61794	107.639	0.0710081	4405.71	2.9064
5.38808	105.942	0.0714993	4336.26	2.9265
5.15483	104.323	0.0743482	4269.99	3.04311
4.91622	102.551	0.0512048	4197.48	2.09584
4.67882	100.672	0.0570867	4120.55	2.33659
4.45027	98.7922	0.0645965	4043.62	2.64397
4.22244	96.8707	0.0447191	3964.97	1.83037
4.00042	94.8475	0.0623405	3882.16	2.55163
3.76641	92.7351	0.0448527	3795.7	1.83585
3.52643	90.3879	0.049502	3699.62	2.02614
3.29058	87.9355	0.0482062	3599.24	1.97311
3.06018	85.4523	0.0497536	3497.61	2.03644
2.82431	82.6992	0.0338654	3384.92	1.38613
2.59403	79.8601	0.0420916	3268.72	1.72283
2.36152	76.7965	0.0359315	3143.32	1.4707
2.1305	73.455	0.0322088	3006.55	1.31832
1.89481	69.8172	0.0251395	2857.65	1.02897
1.66932	65.9843	0.0267536	2700.77	1.09504
1.44646	61.781	0.025316	2528.73	1.0362
1.22207	57.1258	0.0222228	2338.19	0.909589
0.994354	51.6302	0.0173402	2113.25	0.709742
0.775779	45.6022	0.01739	1866.52	0.711784
0.551289	38.1902	0.0156486	1563.14	0.640503
0.325355	28.8005	0.0120589	1178.82	0.493579
0.105091	14.3515	0.0152047	587.413	0.622335
-0.106975	-14.7051	0.0149716	-601.886	0.612794
-0.323926	-28.6912	0.0122961	-1174.35	0.503287
-0.546164	-37.8704	0.0162613	-1550.06	0.665585
-0.769323	-45.3551	0.0144906	-1856.41	0.593107
-0.990638	-51.5309	0.0144081	-2109.18	0.589733
-1.22086	-57.0234	0.0186376	-2334	0.762846
-1.44189	-61.6457	0.0199723	-2523.19	0.817475
-1.66852	-65.9006	0.0259078	-2697.34	1.06042
-1.9005	-69.8272	0.0287459	-2858.06	1.17658
-2.13674	-73.5151	0.0323332	-3009.01	1.32341
-2.36537	-76.7597	0.0348789	-3141.81	1.42761
-2.59921	-79.8554	0.0318025	-3268.52	1.30169
-2.83541	-82.724	0.0326161	-3385.94	1.33499
-3.06547	-85.44	0.0374303	-3497.1	1.53204
-3.3024	-87.9941	0.0474256	-3601.65	1.94116
-3.54346	-90.4478	0.0372286	-3702.07	1.52379
-3.78859	-92.8327	0.0554903	-3799.69	2.27125
-4.02972	-95.0269	0.0533243	-3889.5	2.18259
-4.26882	-97.1964	0.0517342	-3978.3	2.11751
-4.50761	-99.1995	0.0611751	-4060.29	2.50393
-4.74286	-101.091	0.0629524	-4137.7	2.57667
-4.98474	-102.944	0.0499525	-4213.55	2.04458
-5.2152	-104.679	0.0564003	-4284.58	2.3085
-5.4624	-106.452	0.0579056	-4357.14	2.37011
-5.70451	-108.085	0.080065	-4423.97	3.2771
-5.94751	-109.785	0.0724988	-4493.56	2.96741
-6.18249	-111.274	0.0835894	-4554.49	3.42136
-6.41889	-112.71	0.0887223	-4613.27	3.63145
-6.66272	-114.171	0.0700522	-4673.06	2.86727
-6.9015	-115.628	0.075072	-4732.72	3.07274
-7.14446	-116.988	0.0733641	-4788.4	3.00283
-7.38177	-118.285	0.0969507	-4841.46	3.96824
-7.6154	-119.546	0.101018	-4893.09	4.13473
-7.85448	-120.808	0.0861878	-4944.74	3.52771
-8.09542	-122.106	0.0567398	-4997.86	2.32239
-8.33297	-123.223	0.0994626	-5043.57	4.07106
-8.56312	-124.325	0.101409	-5088.69	4.15074
-8.79193	-125.445	0.132044	-5134.54	5.40464
-8.98067	-126.326	0.119432	-5170.6	4.88843
-8.74974	-125.265	0.0831377	-5127.17	3.40287
-8.52013	-124.104	0.127325	-5079.65	5.21149
-8.287	-123.028	0.106933	-5035.61	4.37682
-8.03883	-121.791	0.0733539	-4984.99	3.00241
-7.79277	-120.505	0.101677	-4932.33	4.16168
-7.55029	-119.226	0.0795731	-4880	3.25697
-7.30407	-117.933	0.101152	-4827.04	4.14022
-7.05882	-116.478	0.080126	-4767.52	3.2796
-6.81525	-115.117	0.0793118	-4711.81	3.24627
-6.56817	-113.654	0.0957239	-4651.92	3.91803
-6.32546	-112.149	0.0800529	-4590.33	3.27661
-6.08629	-110.664	0.0637593	-4529.55	2.6097
-5.84808	-109.104	0.0560595	-4465.66	2.29454
-5.60083	-107.417	0.0787686	-4396.65	3.22404
-5.35822	-105.734	0.0694923	-4327.76	2.84436
-5.1234	-103.997	0.0603788	-4256.67	2.47133
-4.88052	-102.176	0.0729157	-4182.1	2.98448
-4.63529	-100.228	0.064194	-4102.39	2.62749
-4.39002	-98.2306	0.0563616	-4020.63	2.30691
-4.14819	-96.1328	0.0638016	-3934.77	2.61143
-3.91038	-94.0248	0.0550276	-3848.48	2.25231
-3.67409	-91.7756	0.0486042	-3756.42	1.9894
-3.43385	-89.4068	0.0398325	-3659.47	1.63037
-3.19363	-86.8233	0.0511415	-3553.72	2.09325
-2.956	-84.1647	0.0270951	-3444.9	1.10902
-2.71129	-81.2658	0.028477	-3326.25	1.16558
-2.47738	-78.3169	0.0402178	-3205.55	1.64613
-2.23728	-74.9743	0.0364409	-3068.74	1.49154
-1.99892	-71.4578	0.0278294	-2924.8	1.13907
-1.76488	-67.6034	0.0375362	-2767.04	1.53637
-1.5283	-63.3895	0.0292047	-2594.56	1.19536
-1.28915	-58.5424	0.0226712	-2396.17	0.927945
-1.0529	-53.0916	0.0138282	-2173.07	0.565996
-0.825325	-47.0307	0.0183032	-1924.99	0.749159
-0.597082	-39.828	0.0146188	-1630.18	0.598353
-0.367429	-30.7333	0.0116038	-1257.93	0.474949
-0.14312	-17.7703	0.0119884	-727.347	0.490691
0.0780174	11.6844	0.0182305	478.249	0.746184
0.298398	27.3655	0.0131075	1120.08	0.536497
0.525434	37.1853	0.0145509	1522.02	0.595576
0.7546375	44.9237	0.0236318	1838.75	0.96726
0.985112	51.3612	0.017277	2102.24	0.707158
1.21983	56.9617	0.0221086	2331.47	0.904917
1.44949	61.7866	0.0262387	2528.96	1.07397
1.68732	66.2388	0.0360832	2711.19	1.47691
1.93009	70.3057	0.0195979	2877.65	0.802153
2.16866	73.9559	0.0445921	3027.05	1.82518
2.40532	77.2822	0.0399014	3163.2	1.63319
2.65028	80.4878	0.0434269	3294.41	1.77749
2.89162	83.4044	0.0413241	3413.78	1.69142
3.12827	86.1109	0.0396036	3524.56	1.621
3.36611	88.651	0.0577845	3628.53	2.36515
3.61001	91.0975	0.058276	3728.67	2.38527
3.84819	93.4137	0.0582708	3823.47	2.38505
4.07664	95.4573	0.0569055	3907.12	2.32917
4.31574	97.5929	0.049449	3994.53	2.02397
4.5453	99.4713	0.0527877	4071.41	2.16063
4.78093	101.37	0.0549941	4149.11	2.25094
5.00981	103.174	0.057382	4222.96	2.34867
5.24765	104.883	0.0520816	4292.92	2.13173
5.48153	106.562	0.0781667	4361.66	3.19941
5.71239	108.148	0.0664288	4426.57	2.71897
5.94727	109.71	0.0507436	4490.51	2.07696
6.18793	111.294	0.0730989	4555.3	2.99198
6.42147	112.747	0.0871686	4614.8	3.56786
6.65686	114.187	0.0872527	4673.74	3.5713
6.89464	115.608	0.100028	4731.89	4.09422
7.13401	116.934	0.0782879	4786.17	3.20436
7.37614	118.24	0.101886	4839.63	4.17025
7.61592	119.589	0.0889535	4894.84	3.64091
7.84607	120.805	0.103093	4944.61	4.21965
8.08578	122.017	0.106442	4994.21	4.35673
8.32167	123.243	0.0960156	5044.4	3.92997
8.5546	124.249	0.118125	5085.56	4.8349
8.77298	125.296	0.100434	5128.44	4.11082
8.99998	126.448	0.109801	5175.59	4.49422
8.78557	125.456	0.10764	5134.98	4.40576
8.55879	124.358	0.11193	5090.02	4.58135
8.33444	123.288	0.0966466	5046.26	3.9558
8.09904	122.101	0.102318	4997.67	4.18792
7.8582	120.827	0.115981	4945.5	4.74716
7.60881	119.514	0.0806514	4891.77	3.3011
7.36408	118.259	0.08519	4840.39	3.48687
7.12316	116.886	0.096042	4784.22	3.93105
6.87819	115.473	0.0745473	4726.36	3.05126
6.63417	114.075	0.0822785	4669.16	3.3677
6.39432	112.627	0.0738265	4609.87	3.02176
6.15008	111.093	0.0635181	4547.08	2.59983
5.90303	109.416	0.0852628	4478.44	3.48985
5.65935	107.854	0.0826131	4414.5	3.3814
5.40836	106.009	0.0598076	4339.02	2.44795
5.1695	104.399	0.0580273	4273.12	2.37509
4.91812	102.491	0.0494253	4195.01	2.023
4.67223	100.512	0.06102	4113.99	2.49758
4.42656	98.5616	0.0591247	4034.18	2.42
4.18463	96.4335	0.0471147	3947.07	1.92843
3.94822	94.3547	0.0511347	3861.99	2.09297
3.70575	92.0984	0.0580988	3769.64	2.37801
3.46424	89.7086	0.0428431	3671.82	1.75359
3.22768	87.2156	0.0432767	3569.78	1.77134
2.97829	84.4471	0.0391234	3456.46	1.60134
2.73568	81.6024	0.0334785	3340.03	1.37029
2.49364	78.5066	0.0282876	3213.31	1.15782
2.25769	75.3069	0.0300115	3082.35	1.22838
2.01941	71.7674	0.0321912	2937.48	1.3176
1.78657	68.0177	0.0284637	2784	1.16503
1.5437	63.6392	0.0268255	2604.78	1.09798
1.30433	58.8776	0.0200403	2409.89	0.82026
1.07046	53.542	0.0188699	2191.5	0.772357
0.834295	47.3359	0.0200248	1937.48	0.819624
0.60406	40.0503	0.0156448	1639.28	0.640351
0.372727	30.9868	0.0145256	1268.3	0.59454
0.148367	18.2071	0.0112748	745.225	0.461482
-3.19699e-05	-0.0966088	0.0150094	-3.95425	0.614344