Folder: PhDThesis/data/monolayers/nanoparticles/Ol_CoFe_C/vsm/Backup/ZFCFC

Note: README.md
# PhDThesis

Color palette:
- #0EA8DF #MatNat Blau
- #EE292F #Medizin Rot
- #FAAB2D #HumWis Orange
- #76C152 #Wiwi Gruen
- #7F0128 #Rechtswis Bordeaux
- #793394 #Philo Violett

Sample Translation
- Ol-CoFe-C : DD67
- Ac-CoFe-C : AH11
- Ac-CoFe-C-YF : YF45

File: DD67_FCw_LangevinSAXSscaled.xye
#Executed at: 2018-11-12 10:16:50.9211
#Loaded File	 = ./DD172_6_FCW_100OE.DAT
#Rescale Factor	 = 0.0572735
#[[Data]]
#T/K	M/kAm-1	sM/kAm-1	M_raw/memu	sM_raw/memu
10.0052	9.74316	2.00231e-05	170.116	0.000349604
11.5288	9.71804	1.72853e-05	169.678	0.000301802
13.5039	9.71605	1.83982e-05	169.643	0.000321235
15.5324	9.7505	2.06903e-05	170.244	0.000361254
17.5182	9.72012	1.87783e-05	169.714	0.00032787
19.5058	9.71368	2.24182e-05	169.602	0.000391424
22.0174	9.72899	1.78011e-05	169.869	0.000310808
24.0463	9.71445	1.65385e-05	169.615	0.000288763
26.0532	9.72007	1.83045e-05	169.713	0.000319598
28.049	9.71645	2.01702e-05	169.65	0.000352174
30.0032	9.71721	1.54944e-05	169.663	0.000270533
32.5474	9.71392	1.54499e-05	169.606	0.000269756
34.5334	9.70261	1.87673e-05	169.408	0.000327679
36.5343	9.7021	1.98374e-05	169.399	0.000346363
38.5646	9.69721	1.86193e-05	169.314	0.000325094
40.5635	9.68598	1.89397e-05	169.118	0.000330688
43.0209	9.69912	2.03736e-05	169.347	0.000355726
45.0132	9.67665	1.8872e-05	168.955	0.000329506
47.0285	9.67012	2.02067e-05	168.841	0.000352811
49.0357	9.6733	1.75029e-05	168.897	0.000305602
51.0435	9.68947	1.94044e-05	169.179	0.000338802
53.051	9.65851	2.0102e-05	168.638	0.000350983
55.0104	9.639	2.01113e-05	168.298	0.000351144
57.0257	9.65244	1.86875e-05	168.532	0.000326284
59.0605	9.63744	1.70153e-05	168.271	0.000297088
61.00634	9.63353	1.75008e-05	168.202	0.000305565
63.0414	9.65108	2.01459e-05	168.509	0.000351748
65.0183	9.64892	1.7348e-05	168.471	0.000302898
67.0768	9.6429	1.86547e-05	168.366	0.000325713
69.0618	9.63505	1.78791e-05	168.229	0.00031217
71.0137	9.63485	1.714e-05	168.225	0.000299266
73.5532	9.59757	2.24245e-05	167.574	0.000391533
75.5546	9.60707	1.95719e-05	167.74	0.000341727
77.5098	9.58338	2.17634e-05	167.327	0.000379991
79.5648	9.58979	1.91022e-05	167.439	0.000333526
81.5807	9.57988	1.67222e-05	167.266	0.000291972
84.0886	9.55741	1.9323e-05	166.873	0.00033738
86.0149	9.57112	2.22505e-05	167.113	0.000388496
88.0863	9.56831	1.59159e-05	167.063	0.000277893
90.0471	9.57451	1.85916e-05	167.172	0.000324611
92.0137	9.55685	1.77937e-05	166.863	0.000310679
94.5577	9.56098	1.91961e-05	166.935	0.000335166
96.5118	9.56679	1.74181e-05	167.037	0.000304122
98.5125	9.53072	2.44424e-05	166.407	0.000426766
100.527	9.53869	1.78489e-05	166.546	0.000311643
102.532	9.55432	1.72655e-05	166.819	0.000301457
104.525	9.56594	1.84762e-05	167.022	0.000322596
106.536	9.52283	2.01376e-05	166.269	0.000351605
108.508	9.52405	2.2591e-05	166.291	0.000394441
110.526	9.54709	2.1141e-05	166.693	0.000369124
112.532	9.52348	1.76639e-05	166.281	0.000308413
114.554	9.53194	1.92454e-05	166.428	0.000336027
116.563	9.52767	1.95465e-05	166.354	0.000341283
118.518	9.53013	1.89636e-05	166.397	0.000331105
120.504	9.52929	1.76957e-05	166.382	0.000308967
122.564	9.53861	1.8797e-05	166.545	0.000328197
124.811	9.51751	2.16824e-05	166.176	0.000378576
126.545	9.51299	1.94511e-05	166.098	0.000339618
128.532	9.50798	1.76731e-05	166.01	0.000308574
130.542	9.53443	1.78115e-05	166.472	0.000310991
132.544	9.52753	2.31976e-05	166.351	0.000405032
135.217	9.52295	1.84517e-05	166.271	0.000322169
137.016	9.52734	1.93641e-05	166.348	0.000338099
139.036	9.51329	1.96593e-05	166.103	0.000343253
141.009	9.5053	2.29719e-05	165.963	0.000401092
143.042	9.48599	1.81052e-05	165.626	0.000316118
145.687	9.50897	1.8761e-05	166.027	0.000327569
147.553	9.50768	1.96393e-05	166.005	0.000342904
149.501	9.50619	1.881e-05	165.979	0.000328424
151.516	9.50293	1.9105e-05	165.922	0.000333575
153.519	9.48596	2.03446e-05	165.626	0.000355219
156.132	9.49253	2.22257e-05	165.74	0.000388063
158.028	9.46654	1.94773e-05	165.286	0.000340075
160.037	9.45584	2.42079e-05	165.1	0.000422671
162.035	9.44355	2.2581e-05	164.885	0.000394266
164.008	9.42626	2.10999e-05	164.583	0.000368406
166.547	9.36644	1.91873e-05	163.539	0.000335012
168.549	9.34297	1.99917e-05	163.129	0.000349057
170.519	9.33205	2.16368e-05	162.938	0.00037778
172.508	9.26871	2.219e-05	161.832	0.000387439
174.505	9.25609	1.78856e-05	161.612	0.000312284
176.948	9.16871	1.97583e-05	160.086	0.000344981
178.534	9.14804	1.98891e-05	159.725	0.000347265
180.559	9.07898	2.02413e-05	158.52	0.000353415
182.52	9.04102	2.09373e-05	157.857	0.000365566
184.511	8.94133	1.94855e-05	156.116	0.000340218
187.357	8.8711	2.0891e-05	154.89	0.000364758
189.025	8.8108	2.52977e-05	153.837	0.000441701
191.016	8.70858	1.82379e-05	152.052	0.000318435
193.018	8.62788	2.14681e-05	150.643	0.000374836
195.018	8.54783	1.96554e-05	149.246	0.000343184
197.724	8.43572	2.32963e-05	147.288	0.000406754
199.53	8.3416	2.08966e-05	145.645	0.000364857
201.512	8.27455	2.16877e-05	144.474	0.000378669
203.531	8.1775	2.17134e-05	142.78	0.000379118
205.557	8.04292	2.23696e-05	140.43	0.000390576
208.121	7.94188	1.86214e-05	138.666	0.00032513
210.032	7.82993	1.88427e-05	136.711	0.000328995
212.048	7.71976	2.15057e-05	134.788	0.000375491
214.019	7.63608	2.3492e-05	133.326	0.000410172
216.034	7.53286	1.92222e-05	131.524	0.00033562
218.502	7.3949	2.43065e-05	129.116	0.000424394
220.528	7.29504	2.30662e-05	127.372	0.000402738
222.522	7.17598	2.04879e-05	125.293	0.000357721
224.536	7.06177	2.23811e-05	123.299	0.000390775
226.515	6.99549	2.25666e-05	122.142	0.000394014
228.967	6.84212	2.1549e-05	119.464	0.000376247
230.55	6.77898	2.39601e-05	118.362	0.000418345
232.548	6.67657	2.04923e-05	116.573	0.000357798
234.521	6.56946	1.7594e-05	114.703	0.000307192
236.511	6.48994	2.36995e-05	113.315	0.000413796
238.528	6.38377	2.41646e-05	111.461	0.000421915
240.547	6.27981	2.24116e-05	109.646	0.000391308
242.536	6.20565	2.65246e-05	108.351	0.000463122
244.514	6.11078	1.87115e-05	106.695	0.000326704
246.51	6.02226	2.15899e-05	105.149	0.000376962
248.582	5.92891	1.94256e-05	103.519	0.000339173
251.039	5.82722	1.98936e-05	101.744	0.000347344
253.045	5.76814	2.06704e-05	100.712	0.000360908
255.016	5.64057	2.46149e-05	98.4849	0.000429779
257.031	5.55583	2.77249e-05	97.0052	0.000484079
259.058	5.51167	1.91131e-05	96.2343	0.000333717
261.531	5.42147	2.35216e-05	94.6593	0.000410688
263.511	5.32976	2.71744e-05	93.058	0.000474467
265.501	5.26604	2.36903e-05	91.9455	0.000413634
267.527	5.15528	2.49931e-05	90.0115	0.000436381
269.525	5.08046	2.35614e-05	88.7053	0.000411384
272.015	5.01738	2.27817e-05	87.6038	0.000397771
274.038	4.93259	2.81263e-05	86.1235	0.000491087
276.056	4.88769	2.32603e-05	85.3395	0.000406126
278.027	4.81462	2.33813e-05	84.0636	0.00040824
280.025	4.7132	2.92146e-05	82.2929	0.000510089
282.521	4.67029	2.65383e-05	81.5437	0.000463361
284.548	4.57717	2.51422e-05	79.9177	0.000438984
286.556	4.51694	2.33242e-05	78.8662	0.000407242
288.537	4.44492	2.25393e-05	77.6087	0.000393538
290.505	4.40943	2.04486e-05	76.9889	0.000357035
293.017	4.29461	2.31153e-05	74.9842	0.000403595
295.017	4.22593	2.21342e-05	73.7851	0.000386464
297.026	4.16699	2.36574e-05	72.7559	0.000413059
299.03	4.14206	2.00006e-05	72.3208	0.000349211
301.027	4.04096	2.79772e-05	70.5555	0.000488484
303.018	4.03592	2.29919e-05	70.4676	0.000401441
305.022	3.98939	2.46017e-05	69.655	0.000429548
307.037	3.91285	2.32076e-05	68.3187	0.000405206
309.007	3.85102	2.1844e-05	67.2391	0.000381397
311.052	3.80724	2.83752e-05	66.4748	0.000495433
313.009	3.7487	2.7344e-05	65.4526	0.000477428
315.011	3.72305	2.72531e-05	65.0048	0.000475841
317.02	3.66328	2.18383e-05	63.9612	0.000381299
319.026	3.62875	2.01754e-05	63.3583	0.000352265
321.008	3.53493	2.9551e-05	61.7201	0.000515962
323.518	3.45995	2.17394e-05	60.4111	0.000379572
325.553	3.42663	3.07891e-05	59.8293	0.00053758
327.567	3.38318	2.59713e-05	59.0705	0.000453462
329.528	3.37087	2.58472e-05	58.8557	0.000451294
331.548	3.28364	1.92542e-05	57.3325	0.000336179
334.042	3.24411	2.54546e-05	56.6424	0.000444439
336.018	3.17281	3.34632e-05	55.3975	0.00058427
338.033	3.17185	2.70497e-05	55.3808	0.000472289
340.002	3.1554	2.19184e-05	55.0936	0.000382697
342.04	3.0761	2.79638e-05	53.709	0.000488251
344.5513	3.04214	3.30415e-05	53.1159	0.000576908
346.545	2.95866	2.43125e-05	51.6585	0.000424498
348.542	2.94052	2.58559e-05	51.3416	0.000451445
349.775	2.93954	2.49367e-05	51.3245	0.000435397

File: DD67_ZFC_LangevinSAXSscaled.xye
#Executed at: 2018-11-12 10:16:50.8973
#Loaded File	 = ./DD172_6_ZFCw_100OE.DAT
#Rescale Factor	 = 0.0572735
#[[Data]]
#T/K	M/kAm-1	sM/kAm-1	M_raw/memu	sM_raw/memu
10.0076	0.272044	1.88183e-05	4.7499	0.00032857
11.5462	0.259671	1.40944e-05	4.53388	0.000246089
13.548	0.254408	1.54294e-05	4.44199	0.000269399
15.507	0.282056	1.72328e-05	4.92473	0.000300886
17.5352	0.261517	1.81021e-05	4.56611	0.000316065
19.5309	0.264821	2.14982e-05	4.6238	0.000375361
21.5052	0.304103	1.87974e-05	5.30966	0.000328205
23.5484	0.305898	1.95179e-05	5.341	0.000340785
25.5581	0.309256	1.74611e-05	5.39964	0.000304872
27.5597	0.321339	1.86459e-05	5.6106	0.000325558
29.5072	0.327721	1.78532e-05	5.72203	0.000311718
32.0569	0.338745	1.59361e-05	5.91452	0.000278245
34.0544	0.327088	1.66779e-05	5.71098	0.000291197
36.0545	0.339027	1.60556e-05	5.91945	0.000280332
38.0185	0.353248	1.82114e-05	6.16773	0.000317973
40.0102	0.35813	1.69111e-05	6.25297	0.00029527
42.5121	0.367422	1.80666e-05	6.41523	0.000315445
44.5687	0.387069	1.801e-05	6.75826	0.000314455
46.5639	0.374315	1.99335e-05	6.53557	0.00034804
48.5275	0.409427	1.95988e-05	7.14863	0.000342196
50.5146	0.388015	1.57527e-05	6.77477	0.000275043
53.0339	0.413153	1.73569e-05	7.21368	0.000303052
55.0379	0.410658	1.56274e-05	7.17011	0.000272856
57.0158	0.423552	1.86712e-05	7.39525	0.000326001
59.0519	0.417185	1.95754e-05	7.28408	0.000341788
61.0532	0.431619	1.84281e-05	7.5361	0.000321756
63.5003	0.443419	2.01115e-05	7.74213	0.000351148
65.5005	0.437412	1.66217e-05	7.63724	0.000290216
67.505	0.458927	1.83167e-05	8.0129	0.000319811
69.5156	0.460662	2.09533e-05	8.04319	0.000365847
71.5175	0.470435	1.93024e-05	8.21383	0.000337022
73.5475	0.502443	1.73531e-05	8.7727	0.000302986
75.5916	0.482706	1.94646e-05	8.42809	0.000339853
77.5137	0.493442	1.68018e-05	8.61554	0.000293361
79.5481	0.502663	1.90536e-05	8.77654	0.000332677
81.545	0.508487	2.25521e-05	8.87823	0.000393762
84.0047	0.537676	1.75367e-05	9.38787	0.000306191
86.0272	0.545737	1.88663e-05	9.52861	0.000329408
88.0462	0.560312	2.13378e-05	9.7831	0.000372559
90.0482	0.531645	1.87415e-05	9.28257	0.000327228
92.0087	0.566927	1.94131e-05	9.89859	0.000338954
94.5368	0.573077	1.77937e-05	10.006	0.000310679
96.5463	0.588993	2.19603e-05	10.2839	0.000383429
98.5046	0.618927	1.9821e-05	10.8065	0.000346076
100.51	0.616555	1.62977e-05	10.7651	0.000284558
102.523	0.607443	1.96657e-05	10.606	0.000343365
105.02	0.650019	1.62048e-05	11.3494	0.000282937
107.01	0.674135	1.85822e-05	11.7705	0.000324446
109.03	0.669442	1.96826e-05	11.6885	0.00034366
111.015	0.687003	2.33222e-05	11.9951	0.000407207
113.022	0.694881	1.82762e-05	12.1327	0.000319105
115.508	0.709424	1.89622e-05	12.3866	0.000331082
117.522	0.742355	2.14212e-05	12.9616	0.000374017
119.51	0.772328	1.86628e-05	13.4849	0.000325854
121.561	0.778409	2.12984e-05	13.5911	0.000371872
123.515	0.808197	2.01676e-05	14.1112	0.000352127
126.061	0.846669	1.90302e-05	14.7829	0.000332268
128.005	0.844948	2.1889e-05	14.7529	0.000382184
130.024	0.903371	2.06263e-05	15.7729	0.000360136
132.019	0.936328	1.77121e-05	16.3484	0.000309254
134.052	0.972413	2.03004e-05	16.9784	0.000354447
136.012	0.989599	1.90988e-05	17.2785	0.000333466
138.031	1.04068	1.89665e-05	18.1703	0.000331157
140.029	1.08423	1.82543e-05	18.9307	0.000318722
142.0513	1.14628	1.93867e-05	20.0142	0.000338493
144.014	1.24273	2.09867e-05	21.6982	0.00036643
146.532	1.31614	1.70762e-05	22.9799	0.000298152
148.525	1.42278	1.83155e-05	24.8418	0.000319791
150.547	1.51276	1.97361e-05	26.4129	0.000344595
152.52	1.62868	2.09409e-05	28.4368	0.000365629
154.531	1.74317	1.76024e-05	30.4358	0.000307339
157.015	1.91796	1.81427e-05	33.4877	0.000316774
159.033	2.08253	2.0172e-05	36.3611	0.000352204
161.046	2.22119	2.01662e-05	38.7822	0.000352103
163.014	2.41835	1.89638e-05	42.2247	0.00033111
165.021	2.55881	2.0667e-05	44.677	0.000360847
167.51	2.82181	2.00539e-05	49.2691	0.000350144
169.536	3.0413	2.06933e-05	53.1013	0.000361307
171.518	3.22297	1.92797e-05	56.2733	0.000336626
173.526	3.47003	2.09298e-05	60.587	0.000365436
175.544	3.66195	2.24375e-05	63.938	0.000391761
178.002	3.9536	1.77691e-05	69.0303	0.00031025
180.016	4.17339	1.99017e-05	72.8677	0.000347484
182.034	4.40244	1.98245e-05	76.867	0.000346138
184.006	4.62682	2.19308e-05	80.7846	0.000382913
186.032	4.87029	1.9219e-05	85.0356	0.000335565
188.054	5.07323	1.83778e-05	88.579	0.000320878
190.009	5.25094	2.13781e-05	91.6819	0.000373264
192.005	5.45003	2.10513e-05	95.1579	0.000367557
194.023	5.65232	2.09955e-05	98.69	0.000366584
196.003	5.8065	2.30172e-05	101.382	0.000401882
198.046	5.99791	2.29463e-05	104.724	0.000400645
200.005	6.12335	2.19108e-05	106.914	0.000382564
202.005	6.24024	2.39319e-05	108.955	0.000417854
204.05	6.3522	2.55737e-05	110.91	0.000446518
206.004	6.45786	1.93358e-05	112.755	0.000337604
208.518	6.54943	2.17952e-05	114.354	0.000380546
210.528	6.62446	2.15849e-05	115.664	0.000376874
212.535	6.65713	2.25248e-05	116.234	0.000393284
214.553	6.67302	2.23637e-05	116.511	0.000390471
216.503	6.70327	2.13786e-05	117.04	0.000373272
219.029	6.70751	2.33056e-05	117.114	0.000406917
221.017	6.65346	2.32498e-05	116.17	0.000405943
223.003	6.66534	2.05164e-05	116.377	0.000358219
225.026	6.63719	2.46734e-05	115.886	0.0004308
227.062	6.60328	2.23917e-05	115.294	0.000390961
229.522	6.54394	2.27616e-05	114.258	0.000397419
231.509	6.47973	2.10018e-05	113.137	0.000366694
233.523	6.43683	2.60483e-05	112.388	0.000454806
235.525	6.36534	2.0881e-05	111.139	0.000364584
237.524	6.31665	2.08122e-05	110.289	0.000363382
240.042	6.21331	2.14355e-05	108.485	0.000374266
242.05	6.11611	2.71591e-05	106.788	0.000474201
244.012	6.07099	2.11036e-05	106	0.00036847
246.003	5.9855	2.22343e-05	104.507	0.000388212
248.001	5.89296	2.55454e-05	102.892	0.000446024
250.518	5.80557	2.59119e-05	101.366	0.000452423
252.529	5.72143	2.35112e-05	99.8966	0.000410508
254.536	5.63396	2.54237e-05	98.3694	0.000443899
256.538	5.55923	2.05863e-05	97.0646	0.000359438
258.506	5.50433	2.29132e-05	96.1061	0.000400067
260.521	5.40852	2.18959e-05	94.4333	0.000382304
262.502	5.35405	2.15359e-05	93.4822	0.000376019
264.509	5.28121	1.79857e-05	92.2103	0.000314032
266.503	5.20145	2.38606e-05	90.8178	0.000416609
268.508	5.11749	2.12032e-05	89.3518	0.000370209
271.052	5.05376	2.39344e-05	88.2391	0.000417896
273.056	4.9405	2.08309e-05	86.2615	0.000363709
275.023	4.9013	2.47849e-05	85.577	0.000432746
277.049	4.82756	2.2246e-05	84.2896	0.000388417
279.032	4.77286	2.666e-05	83.3346	0.000465485
281.526	4.66235	2.55041e-05	81.405	0.000445303
283.508	4.60326	2.08098e-05	80.3733	0.00036334
285.511	4.53993	2.10587e-05	79.2675	0.000367686
287.547	4.47783	2.09411e-05	78.1833	0.000365634
289.506	4.41404	2.43481e-05	77.0694	0.000425119
292.023	4.27971	2.32997e-05	74.7241	0.000406814
294.031	4.2679	2.73917e-05	74.5178	0.000478262
296.042	4.20455	2.55316e-05	73.4118	0.000445784
298.025	4.17027	2.63513e-05	72.8133	0.000460095
300.022	4.07728	2.313e-05	71.1896	0.000403851
302.043	4.05502	2.51553e-05	70.801	0.000439214
304.053	3.98562	2.03983e-05	69.5892	0.000356156
306.056	3.93984	2.17904e-05	68.7899	0.000380463
308.039	3.87463	2.69828e-05	67.6513	0.000471123
310.031	3.85226	2.33534e-05	67.2607	0.000407753
312.403	3.77537	2.49324e-05	65.9183	0.000435322
314.022	3.76122	2.91294e-05	65.6712	0.000508601
316.027	3.66841	2.40896e-05	64.0507	0.000420606
318.026	3.61349	2.85856e-05	63.0918	0.000499106
320.095	3.58229	2.13301e-05	62.5471	0.000372426
322.781	3.48526	2.32145e-05	60.8529	0.000405327
324.509	3.44239	3.09535e-05	60.1044	0.00054045
326.517	3.40825	2.55278e-05	59.5083	0.000445717
328.51	3.39669	2.2314e-05	59.3065	0.000389605
330.538	3.3374	2.22778e-05	58.2712	0.000388972
333.263	3.25783	3.15881e-05	56.882	0.000551531
335.022	3.23818	2.53462e-05	56.5388	0.000442547
337.02	3.22308	2.4761e-05	56.2752	0.000432329
339.022	3.12883	2.6289e-05	54.6296	0.000459008
341.054	3.06797	2.77235e-05	53.567	0.000484054
343.647	3.04362	2.48449e-05	53.1419	0.000433794
345.546	2.99642	2.16522e-05	52.3178	0.000378049
347.501	2.97876	2.69272e-05	52.0094	0.000470151
349.503	2.91371	2.9749e-05	50.8736	0.000519421
349.752	2.91336	2.75403e-05	50.8675	0.000480856