Folder: PhDThesis/data/looselyPackedNP/nanoparticles/vsm/ios-7

Note: README.md
# PhDThesis

Color palette:
- #0EA8DF #MatNat Blau
- #EE292F #Medizin Rot
- #FAAB2D #HumWis Orange
- #76C152 #Wiwi Gruen
- #7F0128 #Rechtswis Bordeaux
- #793394 #Philo Violett

Sample Translation
- Ol-CoFe-C : DD67
- Ac-CoFe-C : AH11
- Ac-CoFe-C-YF : YF45

File: kwi338_BGLinSub_rescale.xye
#Extracted data using VSM extraction tool v1.1
#Loaded parameter file: extractVSM.dat
#Desired unit of B: T
#Desired unit of M: memu
#Reading column for B: Applied Field
#Reading column for M: Raw Signal Mx
#Estimate noise level: 5e-3 memu
#Loading data from file: kwi338-Hys-00.VHD
#Save data to file: kwi338.xye
#Extraction performed at: Fri Jul 13 11:41:19 2018
#Unit of B in data: Oe
#Changing unit by multiplying with factor: 0.0001
#Unit of M in data: memu
#Applied image correction factors to M by linear interpolation of following values
#14999.0	1.0
#15247.0	1.000145
#15498.0	1.000209
#15748.0	1.000417
#15998.0	1.000699
#16248.0	1.001107
#16497.0	1.001462
#16747.0	1.001735
#16997.0	1.002153
#17247.0	1.002709
#17497.0	1.003192
#17747.0	1.003685
#17996.0	1.004307
#18246.0	1.004801
#18495.0	1.005497
#18746.0	1.006341
#18995.0	1.007251

#Substracted file: kwi338.xye
#Using Slope: -1.43
#Rescaled file: kwi338_BGLinSub.xye
#Rescale Factor: 0.00534131
#Sigma Scalefactor: 0.0
#B / T	M_scaled / kAm-1	sM_scaled / kAm-1	M_prescaling / memu	sM_prescaling / memu	M_raw / memu	sM_raw / memu
-0.0009	-0.969483	-0.9361	-0.005178313	0.005	-0.003891313	0.005
0.0009	0.417182	0.9361	0.0022283	0.005	0.0009412998	0.005
0.0029	2.44936	0.9361	0.0130828	0.005	0.008935817	0.005
0.0049	4.65616	0.9361	0.02487002	0.005	0.01786302	0.005
0.0099	9.84892	0.9361	0.0526062	0.005	0.03844916	0.005
0.0149	14.4218	0.9361	0.07703123	0.005	0.05572423	0.005
0.0199	18.7974	0.9361	0.100403	0.005	0.07194573	0.005
0.0249	23.7236	0.9361	0.1267152	0.005	0.0911082	0.005
0.0299	28.2851	0.9361	0.1510794	0.005	0.1083224	0.005
0.0349	32.808	0.9361	0.1752378	0.005	0.1253308	0.005
0.0399	37.7118	0.9361	0.2014304	0.005	0.1443734	0.005
0.0449	41.9408	0.9361	0.224019	0.005	0.1598118	0.005
0.0499	46.6483	0.9361	0.249163	0.005	0.177806	0.005
0.0549	51.6271	0.9361	0.275756	0.005	0.1972493	0.005
0.0599	55.6675	0.9361	0.2973376	0.005	0.2116806	0.005
0.0649	60.1688	0.9361	0.3213801	0.005	0.2285731	0.005
0.0698	64.1646	0.9361	0.3427232	0.005	0.2429092	0.005
0.0748	68.6113	0.9361	0.3664746	0.005	0.2595106	0.005
0.0798	73.5262	0.9361	0.392726	0.005	0.2786122	0.005
0.0849	77.1061	0.9361	0.4118478	0.005	0.2904408	0.005
0.0899	81.0428	0.9361	0.432875	0.005	0.3043179	0.005
0.0948	85.096	0.9361	0.4545241	0.005	0.3189601	0.005
0.0999	88.1215	0.9361	0.4706842	0.005	0.3278272	0.005
0.1998	157.787	0.9361	0.8427897	0.005	0.5570757	0.005
0.2998	202.041	0.9361	1.07916	0.005	0.6504509	0.005
0.3998	232.707	0.9361	1.24296	0.005	0.6712446	0.005
0.4998	252.812	0.9361	1.35035	0.005	0.6356348	0.005
0.5998	266.888	0.9361	1.42553	0.005	0.5678205	0.005
0.6998	277.838	0.9361	1.48402	0.005	0.4833033	0.005
0.7999	289.031	0.9361	1.5438	0.005	0.3999475	0.005
0.8998	292.43	0.9361	1.56196	0.005	0.2752475	0.005
0.9999	301.158	0.9361	1.60858	0.005	0.1787193	0.005
1.1998	311.662	0.9361	1.66468	0.005	-0.05102921	0.005
1.3998	317.727	0.9361	1.69708	0.005	-0.3046341	0.005
1.5998	300.163	0.9361	1.60327	0.005	-0.6839691	0.005
1.7997	330.259	0.9361	1.76402	0.005	-0.806079	0.005
1.8	331.268	0.9361	1.7694	0.005	-0.8011389	0.005
1.6002	302.344	0.9361	1.61491	0.005	-0.672899	0.005
1.4	316.908	0.9361	1.6927	0.005	-0.3092972	0.005
1.2	309.169	0.9361	1.65137	0.005	-0.06463072	0.005
1.0	299.614	0.9361	1.60033	0.005	0.1703317	0.005
0.9	292.778	0.9361	1.56382	0.005	0.2768188	0.005
0.8	282.736	0.9361	1.51018	0.005	0.3661831	0.005
0.6999	274.819	0.9361	1.4679	0.005	0.4670385	0.005
0.6	264.648	0.9361	1.41357	0.005	0.555566	0.005
0.5	248.953	0.9361	1.32974	0.005	0.6147381	0.005
0.4	229.719	0.9361	1.227	0.005	0.6550021	0.005
0.3	200.801	0.9361	1.072543	0.005	0.643543	0.005
0.2001	154.272	0.9361	0.8240158	0.005	0.5378728	0.005
0.1	87.2714	0.9361	0.4661438	0.005	0.3231438	0.005
0.0949	84.0854	0.9361	0.449127	0.005	0.3134196	0.005
0.0899	80.0494	0.9361	0.427569	0.005	0.299012	0.005
0.0849	74.722	0.9361	0.3991135	0.005	0.2777065	0.005
0.0799	70.2256	0.9361	0.3750967	0.005	0.2608397	0.005
0.0749	67.6567	0.9361	0.3613755	0.005	0.2542685	0.005
0.0699	62.8279	0.9361	0.3355832	0.005	0.2356262	0.005
0.0649	58.7823	0.9361	0.3139747	0.005	0.2211677	0.005
0.0599	54.7347	0.9361	0.2923549	0.005	0.2066979	0.005
0.0549	50.2917	0.9361	0.268624	0.005	0.1901168	0.005
0.0499	45.8144	0.9361	0.2447091	0.005	0.1733521	0.005
0.0449	41.5301	0.9361	0.221825	0.005	0.157618	0.005
0.0399	36.8884	0.9361	0.1970326	0.005	0.1399756	0.005
0.0349	32.5544	0.9361	0.1738831	0.005	0.1239761	0.005
0.0299	25.4732	0.9361	0.13606	0.005	0.09330338	0.005
0.0249	23.3418	0.9361	0.124676	0.005	0.08906881	0.005
0.0199	18.6276	0.9361	0.0994958	0.005	0.07103878	0.005
0.0149	14.3929	0.9361	0.07687685	0.005	0.05556985	0.005
0.0099	9.77418	0.9361	0.05220694	0.005	0.03804994	0.005
0.0049	5.33123	0.9361	0.02847577	0.005	0.02146877	0.005
0.003	3.11852	0.9361	0.01665699	0.005	0.01236699	0.005
0.001	1.7941	0.9361	0.009582833	0.005	0.008152833	0.005
-0.0009	-0.422436	-0.9361	-0.00225636	0.005	-0.0009693606	0.005
-0.0029	-2.22063	-0.9361	-0.0118611	0.005	-0.007714077	0.005
-0.0049	-4.05321	-0.9361	-0.02164946	0.005	-0.01464246	0.005
-0.0098	-8.52287	-0.9361	-0.04552333	0.005	-0.03150933	0.005
-0.0149	-13.2963	-0.9361	-0.07101981	0.005	-0.04971281	0.005
-0.0198	-17.5845	-0.9361	-0.09392443	0.005	-0.06561043	0.005
-0.0249	-22.1249	-0.9361	-0.118176	0.005	-0.08256906	0.005
-0.0299	-27.1562	-0.9361	-0.1450499	0.005	-0.1022929	0.005
-0.0349	-30.2257	-0.9361	-0.1614449	0.005	-0.1115379	0.005
-0.0399	-35.7747	-0.9361	-0.1910839	0.005	-0.1340269	0.005
-0.0449	-39.9636	-0.9361	-0.213458	0.005	-0.1492509	0.005
-0.0499	-44.0932	-0.9361	-0.2355155	0.005	-0.1641585	0.005
-0.0549	-47.2811	-0.9361	-0.2525429	0.005	-0.1740359	0.005
-0.0599	-53.6744	-0.9361	-0.2866919	0.005	-0.2010349	0.005
-0.0649	-57.5559	-0.9361	-0.3074238	0.005	-0.2146168	0.005
-0.0699	-61.2671	-0.9361	-0.3272468	0.005	-0.2272898	0.005
-0.0749	-65.4827	-0.9361	-0.3497636	0.005	-0.2426566	0.005
-0.0799	-69.9868	-0.9361	-0.373821	0.005	-0.2595644	0.005
-0.0849	-68.6395	-0.9361	-0.366625	0.005	-0.2452178	0.005
-0.0899	-77.5259	-0.9361	-0.41409	0.005	-0.2855328	0.005
-0.0949	-81.6402	-0.9361	-0.4360657	0.005	-0.3003587	0.005
-0.0999	-85.6266	-0.9361	-0.457358	0.005	-0.3145012	0.005
-0.1998	-150.446	-0.9361	-0.803577	0.005	-0.5178632	0.005
-0.2998	-193.807	-0.9361	-1.03519	0.005	-0.6064717	0.005
-0.3997	-224.98	-0.9361	-1.20169	0.005	-0.6301151	0.005
-0.4999	-245.606	-0.9361	-1.31186	0.005	-0.5970033	0.005
-0.5998	-243.808	-0.9361	-1.30225	0.005	-0.4445392	0.005
-0.6998	-269.235	-0.9361	-1.43807	0.005	-0.4373558	0.005
-0.7998	-281.613	-0.9361	-1.50418	0.005	-0.3604691	0.005
-0.8998	-287.355	-0.9361	-1.53485	0.005	-0.2481362	0.005
-0.9997	-293.579	-0.9361	-1.5681	0.005	-0.1385267	0.005
-1.1998	-303.562	-0.9361	-1.62142	0.005	0.09429316	0.005
-1.3997	-310.239	-0.9361	-1.65708	0.005	0.3444899	0.005
-1.5996	-316.965	-0.9361	-1.69301	0.005	0.5940035	0.005
-1.7997	-322.777	-0.9361	-1.72405	0.005	0.8458752	0.005
-1.8	-323.117	-0.9361	-1.72587	0.005	0.844487	0.005
-1.6	-312.218	-0.9361	-1.66765	0.005	0.6199116	0.005
-1.3999	-306.641	-0.9361	-1.63787	0.005	0.3639894	0.005
-1.2	-303.337	-0.9361	-1.62022	0.005	0.09578298	0.005
-0.9999	-294.389	-0.9361	-1.57242	0.005	-0.1425674	0.005
-0.8999	-284.642	-0.9361	-1.52036	0.005	-0.2335039	0.005
-0.7999	-258.956	-0.9361	-1.38317	0.005	-0.2393098	0.005
-0.7	-268.807	-0.9361	-1.43578	0.005	-0.4347845	0.005
-0.6	-259.096	-0.9361	-1.38391	0.005	-0.525914	0.005
-0.5	-244.199	-0.9361	-1.30434	0.005	-0.5893417	0.005
-0.3999	-224.573	-0.9361	-1.19951	0.005	-0.6276565	0.005
-0.3	-195.42	-0.9361	-1.0438	0.005	-0.6147984	0.005
-0.1999	-148.159	-0.9361	-0.7913636	0.005	-0.5055066	0.005
-0.1	-85.5636	-0.9361	-0.457022	0.005	-0.3140218	0.005
-0.0949	-81.5027	-0.9361	-0.435331	0.005	-0.2996241	0.005
-0.0899	-78.1543	-0.9361	-0.4174467	0.005	-0.2888897	0.005
-0.0849	-73.6216	-0.9361	-0.3932361	0.005	-0.2718291	0.005
-0.0799	-69.9963	-0.9361	-0.3738722	0.005	-0.2596152	0.005
-0.0749	-62.0002	-0.9361	-0.3311623	0.005	-0.2240553	0.005
-0.0699	-62.0332	-0.9361	-0.3313386	0.005	-0.2313816	0.005
-0.0649	-56.1288	-0.9361	-0.2998015	0.005	-0.2069945	0.005
-0.0599	-51.2139	-0.9361	-0.2735494	0.005	-0.1878924	0.005
-0.0549	-49.4951	-0.9361	-0.2643687	0.005	-0.1858617	0.005
-0.0499	-42.0071	-0.9361	-0.224373	0.005	-0.153016	0.005
-0.0449	-39.8661	-0.9361	-0.2129375	0.005	-0.1487305	0.005
-0.0399	-36.4873	-0.9361	-0.1948899	0.005	-0.1378329	0.005
-0.0349	-31.9928	-0.9361	-0.1708833	0.005	-0.1209763	0.005
-0.0299	-27.7007	-0.9361	-0.147958	0.005	-0.1052012	0.005
-0.0249	-21.4811	-0.9361	-0.114737	0.005	-0.07913035	0.005
-0.0199	-18.6371	-0.9361	-0.0995467	0.005	-0.07108972	0.005
-0.0149	-13.6784	-0.9361	-0.07306065	0.005	-0.05175365	0.005
-0.0099	-9.23737	-0.9361	-0.0493397	0.005	-0.03518269	0.005
-0.0049	-5.23189	-0.9361	-0.02794518	0.005	-0.02093818	0.005
-0.003	-3.56746	-0.9361	-0.0190549	0.005	-0.01476491	0.005
-0.001	-1.31842	-0.9361	-0.00704208	0.005	-0.005612076	0.005
0.0009	0.474015	0.9361	0.002531862	0.005	0.001244862	0.005
0.0029	2.09454	0.9361	0.0111876	0.005	0.007040617	0.005
0.0049	4.33021	0.9361	0.02312901	0.005	0.01612201	0.005
0.0099	8.62797	0.9361	0.0460847	0.005	0.0319277	0.005
0.0149	12.6907	0.9361	0.06778523	0.005	0.04647823	0.005
0.0199	17.5693	0.9361	0.0938429	0.005	0.06538593	0.005
0.0249	22.1345	0.9361	0.118227	0.005	0.08262012	0.005
0.0299	26.8353	0.9361	0.1433356	0.005	0.1005786	0.005
0.0349	30.56	0.9361	0.1632305	0.005	0.1133235	0.005
0.0399	34.7603	0.9361	0.1856657	0.005	0.1286087	0.005
0.0449	39.6102	0.9361	0.2115703	0.005	0.1473633	0.005
0.0499	41.0042	0.9361	0.219016	0.005	0.147659	0.005
0.0549	48.5514	0.9361	0.2593282	0.005	0.1808212	0.005
0.0599	47.7523	0.9361	0.2550602	0.005	0.1694032	0.005
0.0648	56.9521	0.9361	0.3041992	0.005	0.2115352	0.005
0.0698	60.8621	0.9361	0.3250835	0.005	0.2252695	0.005
0.0748	64.5027	0.9361	0.3445289	0.005	0.2375649	0.005
0.0798	68.3343	0.9361	0.3649947	0.005	0.2508807	0.005
0.0849	72.9779	0.9361	0.389798	0.005	0.2683906	0.005
0.0899	76.7675	0.9361	0.410039	0.005	0.281482	0.005
0.0949	80.7252	0.9361	0.4311783	0.005	0.2954713	0.005
0.0999	83.9932	0.9361	0.448634	0.005	0.3057771	0.005
0.1999	136.762	0.9361	0.730488	0.005	0.444631	0.005
0.2998	185.455	0.9361	0.990575	0.005	0.5618608	0.005
0.3999	220.284	0.9361	1.1766	0.005	0.6047472	0.005
0.4998	239.946	0.9361	1.28163	0.005	0.5669115	0.005
0.5999	251.235	0.9361	1.34193	0.005	0.4840685	0.005
0.6998	249.331	0.9361	1.33176	0.005	0.3310415	0.005
0.7999	277.448	0.9361	1.48194	0.005	0.338082	0.005
0.8998	282.668	0.9361	1.50982	0.005	0.2231063	0.005
0.9999	281.441	0.9361	1.50326	0.005	0.07340608	0.005
1.1998	297.562	0.9361	1.58937	0.005	-0.1263435	0.005
1.3998	304.802	0.9361	1.62804	0.005	-0.3736726	0.005
1.5998	296.808	0.9361	1.58535	0.005	-0.7018781	0.005
1.7997	298.946	0.9361	1.59676	0.005	-0.9726163	0.005
1.8996	320.965	0.9361	1.71437	0.005	-0.9948409	0.005