Folder: PhDThesis/data/colloidalCrystals/nanoparticles/vsm/postSynthesis/rawdata/dd144_dry

Note: README.md
# PhDThesis

Color palette:
- #0EA8DF #MatNat Blau
- #EE292F #Medizin Rot
- #FAAB2D #HumWis Orange
- #76C152 #Wiwi Gruen
- #7F0128 #Rechtswis Bordeaux
- #793394 #Philo Violett

Sample Translation
- Ol-CoFe-C : DD67
- Ac-CoFe-C : AH11
- Ac-CoFe-C-YF : YF45

File: dd144_dry.xye
#Extracted data using VSM extraction tool v1.1
#Loaded parameter file: extractVSM.dat
#Desired unit of B: T
#Desired unit of M: memu
#Reading column for B: Applied Field
#Reading column for M: Raw Signal Mx
#Estimate noise level: 5e-3 memu
#Loading data from file: dd144_dry-Hys-00.VHD
#Save data to file: dd144_dry.xye
#Extraction performed at: Wed Oct 12 13:39:32 2016
#Unit of B in data: Oe
#Changing unit by multiplying with factor: 0.0001
#Unit of M in data: memu
#Applied image correction factors to M by linear interpolation of following values
#14998.0	1.0
#15247.0	1.000156
#15497.0	1.000302
#15747.0	1.000527
#15997.0	1.000751
#16247.0	1.001191
#16497.0	1.001494
#16746.0	1.001865
#16996.0	1.002237
#17247.0	1.002688
#17496.0	1.003286
#17746.0	1.003738
#17996.0	1.004259
#18245.0	1.005007
#18495.0	1.005686
#18745.0	1.006367
#18995.0	1.007118

#B / T	M / memu	sM / memu	M_raw / memu	sM_raw / memu
-0.0007	-0.2178575	0.005	-0.2178575	0.005
0.001	0.3115678	0.005	0.3115678	0.005
0.0031	0.8784098	0.005	0.8784098	0.005
0.0051	1.425867	0.005	1.425867	0.005
0.01	2.692503	0.005	2.692503	0.005
0.0151	3.842422	0.005	3.842422	0.005
0.02	4.863599	0.005	4.863599	0.005
0.025	5.776633	0.005	5.776633	0.005
0.03	6.596262	0.005	6.596262	0.005
0.035	7.333736	0.005	7.333736	0.005
0.04	8.004104	0.005	8.004104	0.005
0.0451	8.618108	0.005	8.618108	0.005
0.05	9.178236	0.005	9.178236	0.005
0.055	9.694089	0.005	9.694089	0.005
0.06	10.17364	0.005	10.17364	0.005
0.065	10.61613	0.005	10.61613	0.005
0.07	11.0352	0.005	11.0352	0.005
0.075	11.42309	0.005	11.42309	0.005
0.08	11.77965	0.005	11.77965	0.005
0.085	12.13076	0.005	12.13076	0.005
0.09	12.45764	0.005	12.45764	0.005
0.095	12.76278	0.005	12.76278	0.005
0.1	13.05208	0.005	13.05208	0.005
0.2	16.89722	0.005	16.89722	0.005
0.3	19.01515	0.005	19.01515	0.005
0.4001	20.44173	0.005	20.44173	0.005
0.5	21.50106	0.005	21.50106	0.005
0.6001	22.33531	0.005	22.33531	0.005
0.7	23.01682	0.005	23.01682	0.005
0.8002	23.57895	0.005	23.57895	0.005
0.9001	24.06806	0.005	24.06806	0.005
1.0002	24.48729	0.005	24.48729	0.005
1.2001	25.18111	0.005	25.18111	0.005
1.4001	25.72287	0.005	25.72287	0.005
1.6001	26.144	0.005	26.12419	0.005
1.8001	26.507	0.005	26.39422	0.005
1.8006	26.512	0.005	26.39877	0.005
1.6007	26.1636	0.005	26.14351	0.005
1.4005	25.73869	0.005	25.73869	0.005
1.2004	25.19691	0.005	25.19691	0.005
1.0004	24.51469	0.005	24.51469	0.005
0.9003	24.09615	0.005	24.09615	0.005
0.8002	23.61373	0.005	23.61373	0.005
0.7002	23.04632	0.005	23.04632	0.005
0.6002	22.3771	0.005	22.3771	0.005
0.5002	21.55196	0.005	21.55196	0.005
0.4002	20.49934	0.005	20.49934	0.005
0.3002	19.08187	0.005	19.08187	0.005
0.2002	16.95796	0.005	16.95796	0.005
0.1001	13.11705	0.005	13.11705	0.005
0.095	12.81965	0.005	12.81965	0.005
0.09	12.51384	0.005	12.51384	0.005
0.085	12.1915	0.005	12.1915	0.005
0.08	11.84776	0.005	11.84776	0.005
0.075	11.48084	0.005	11.48084	0.005
0.07	11.09566	0.005	11.09566	0.005
0.065	10.67784	0.005	10.67784	0.005
0.0601	10.23718	0.005	10.23718	0.005
0.0551	9.757556	0.005	9.757556	0.005
0.0501	9.240384	0.005	9.240384	0.005
0.0451	8.684556	0.005	8.684556	0.005
0.0401	8.076772	0.005	8.076772	0.005
0.0351	7.407206	0.005	7.407206	0.005
0.0301	6.668777	0.005	6.668777	0.005
0.0251	5.855238	0.005	5.855238	0.005
0.0201	4.938124	0.005	4.938124	0.005
0.0151	3.910405	0.005	3.910405	0.005
0.0101	2.753116	0.005	2.753116	0.005
0.0051	1.458891	0.005	1.458891	0.005
0.0031	0.9058854	0.005	0.9058854	0.005
0.0011	0.3384778	0.005	0.3384778	0.005
-0.0007	-0.2243646	0.005	-0.2243646	0.005
-0.0027	-0.7868546	0.005	-0.7868546	0.005
-0.0047	-1.341622	0.005	-1.341622	0.005
-0.0097	-2.642512	0.005	-2.642512	0.005
-0.0147	-3.813147	0.005	-3.813147	0.005
-0.0197	-4.848941	0.005	-4.848941	0.005
-0.0247	-5.77378	0.005	-5.77378	0.005
-0.0297	-6.598206	0.005	-6.598206	0.005
-0.0347	-7.342938	0.005	-7.342938	0.005
-0.0397	-8.015331	0.005	-8.015331	0.005
-0.0447	-8.634013	0.005	-8.634013	0.005
-0.0497	-9.195425	0.005	-9.195425	0.005
-0.0547	-9.71473	0.005	-9.71473	0.005
-0.0597	-10.19436	0.005	-10.19436	0.005
-0.0648	-10.64447	0.005	-10.64447	0.005
-0.0698	-11.05812	0.005	-11.05812	0.005
-0.0748	-11.44962	0.005	-11.44962	0.005
-0.0798	-11.81547	0.005	-11.81547	0.005
-0.0848	-12.16063	0.005	-12.16063	0.005
-0.0898	-12.48715	0.005	-12.48715	0.005
-0.0948	-12.79506	0.005	-12.79506	0.005
-0.0998	-13.08789	0.005	-13.08789	0.005
-0.1996	-16.94498	0.005	-16.94498	0.005
-0.2997	-19.0622	0.005	-19.0622	0.005
-0.3997	-20.48176	0.005	-20.48176	0.005
-0.4998	-21.53651	0.005	-21.53651	0.005
-0.5998	-22.36375	0.005	-22.36375	0.005
-0.6998	-23.04737	0.005	-23.04737	0.005
-0.7997	-23.61441	0.005	-23.61441	0.005
-0.8998	-24.0965	0.005	-24.0965	0.005
-0.9998	-24.51573	0.005	-24.51573	0.005
-1.1998	-25.20532	0.005	-25.20532	0.005
-1.3998	-25.73936	0.005	-25.73936	0.005
-1.5997	-26.1631	0.005	-26.14351	0.005
-1.7998	-26.5311	0.005	-26.41845	0.005
-1.8002	-26.529	0.005	-26.41597	0.005
-1.6001	-26.1679	0.005	-26.14807	0.005
-1.4001	-25.75694	0.005	-25.75694	0.005
-1.2001	-25.22357	0.005	-25.22357	0.005
-1.0	-24.53506	0.005	-24.53506	0.005
-0.9	-24.11969	0.005	-24.11969	0.005
-0.7999	-23.63726	0.005	-23.63726	0.005
-0.7	-23.07298	0.005	-23.07298	0.005
-0.5999	-22.40905	0.005	-22.40905	0.005
-0.4999	-21.58392	0.005	-21.58392	0.005
-0.3998	-20.53479	0.005	-20.53479	0.005
-0.2999	-19.11557	0.005	-19.11557	0.005
-0.1998	-16.99342	0.005	-16.99342	0.005
-0.0999	-13.13814	0.005	-13.13814	0.005
-0.0948	-12.83791	0.005	-12.83791	0.005
-0.0898	-12.53033	0.005	-12.53033	0.005
-0.085	-12.21783	0.005	-12.21783	0.005
-0.0798	-11.85513	0.005	-11.85513	0.005
-0.075	-11.50613	0.005	-11.50613	0.005
-0.0698	-11.09705	0.005	-11.09705	0.005
-0.065	-10.69854	0.005	-10.69854	0.005
-0.06	-10.25335	0.005	-10.25335	0.005
-0.055	-9.773709	0.005	-9.773709	0.005
-0.0499	-9.253367	0.005	-9.253367	0.005
-0.045	-8.694747	0.005	-8.694747	0.005
-0.04	-8.077467	0.005	-8.077467	0.005
-0.0349	-7.405097	0.005	-7.405097	0.005
-0.0299	-6.662085	0.005	-6.662085	0.005
-0.0249	-5.837333	0.005	-5.837333	0.005
-0.0199	-4.918112	0.005	-4.918112	0.005
-0.0149	-3.87986	0.005	-3.87986	0.005
-0.0099	-2.714842	0.005	-2.714842	0.005
-0.0049	-1.405526	0.005	-1.405526	0.005
-0.0028	-0.7942274	0.005	-0.7942274	0.005
-0.0007	-0.2299825	0.005	-0.2299825	0.005
0.001	0.3082818	0.005	0.3082818	0.005
0.003	0.8777924	0.005	0.8777924	0.005
0.0051	1.458891	0.005	1.458891	0.005
0.0101	2.753818	0.005	2.753818	0.005
0.0151	3.921997	0.005	3.921997	0.005
0.02	4.950763	0.005	4.950763	0.005
0.0251	5.868228	0.005	5.868228	0.005
0.0301	6.689123	0.005	6.689123	0.005
0.0351	7.431063	0.005	7.431063	0.005
0.04	8.101018	0.005	8.101018	0.005
0.0451	8.715459	0.005	8.715459	0.005
0.0501	9.274809	0.005	9.274809	0.005
0.055	9.790568	0.005	9.790568	0.005
0.06	10.27023	0.005	10.27023	0.005
0.065	10.71542	0.005	10.71542	0.005
0.07	11.12904	0.005	11.12904	0.005
0.075	11.52019	0.005	11.52019	0.005
0.08	11.88253	0.005	11.88253	0.005
0.085	12.22697	0.005	12.22697	0.005
0.09	12.55035	0.005	12.55035	0.005
0.095	12.85756	0.005	12.85756	0.005
0.1	13.15039	0.005	13.15039	0.005
0.2001	16.99412	0.005	16.99412	0.005
0.3	19.10435	0.005	19.10435	0.005
0.4001	20.51864	0.005	20.51864	0.005
0.5	21.56847	0.005	21.56847	0.005
0.6001	22.40835	0.005	22.40835	0.005
0.7	23.08282	0.005	23.08282	0.005
0.8002	23.64533	0.005	23.64533	0.005
0.9001	24.12705	0.005	24.12705	0.005
1.0002	24.5505	0.005	24.5505	0.005
1.2001	25.23693	0.005	25.23693	0.005
1.4001	25.76747	0.005	25.76747	0.005
1.6001	26.1935	0.005	26.1737	0.005
1.8001	26.5613	0.005	26.44827	0.005
1.9001	26.7129	0.005	26.52412	0.005