Folder: PhDThesis/data/colloidalCrystals/nanoparticles/vsm/postSynthesis/rawdata/empty_pot

Note: README.md
# PhDThesis

Color palette:
- #0EA8DF #MatNat Blau
- #EE292F #Medizin Rot
- #FAAB2D #HumWis Orange
- #76C152 #Wiwi Gruen
- #7F0128 #Rechtswis Bordeaux
- #793394 #Philo Violett

Sample Translation
- Ol-CoFe-C : DD67
- Ac-CoFe-C : AH11
- Ac-CoFe-C-YF : YF45

File: empty_pot.xye
#Extracted data using VSM extraction tool v1.1
#Loaded parameter file: extractVSM.dat
#Desired unit of B: T
#Desired unit of M: memu
#Reading column for B: Applied Field
#Reading column for M: Raw Signal Mx
#Estimate noise level: 5e-3 memu
#Loading data from file: empty_pot-Hys-00.VHD
#Save data to file: empty_pot.xye
#Extraction performed at: Wed Oct 12 13:38:54 2016
#Unit of B in data: Oe
#Changing unit by multiplying with factor: 0.0001
#Unit of M in data: memu
#Applied image correction factors to M by linear interpolation of following values
#14998.0	1.0
#15247.0	1.000156
#15497.0	1.000302
#15747.0	1.000527
#15997.0	1.000751
#16247.0	1.001191
#16497.0	1.001494
#16746.0	1.001865
#16996.0	1.002237
#17247.0	1.002688
#17496.0	1.003286
#17746.0	1.003738
#17996.0	1.004259
#18245.0	1.005007
#18495.0	1.005686
#18745.0	1.006367
#18995.0	1.007118

#B / T	M / memu	sM / memu	M_raw / memu	sM_raw / memu
0.0	0.0001124676	0.005	0.0001124676	0.005
0.0998	-0.1244935	0.005	-0.1244935	0.005
0.1999	-0.2508576	0.005	-0.2508576	0.005
0.2999	-0.3787408	0.005	-0.3787408	0.005
0.3999	-0.5063513	0.005	-0.5063513	0.005
0.4999	-0.631003	0.005	-0.631003	0.005
0.5999	-0.7600717	0.005	-0.7600717	0.005
0.6999	-0.887921	0.005	-0.887921	0.005
0.8	-1.014249	0.005	-1.014249	0.005
0.9	-1.139336	0.005	-1.139336	0.005
1.0	-1.267688	0.005	-1.267688	0.005
1.1	-1.394992	0.005	-1.394992	0.005
1.2	-1.514436	0.005	-1.514436	0.005
1.3	-1.642329	0.005	-1.642329	0.005
1.4	-1.764432	0.005	-1.764432	0.005
1.4999	-1.88123	0.005	-1.881228	0.005
1.6	-2.00807	0.005	-2.006556	0.005
1.7	-2.13015	0.005	-2.125385	0.005
1.8	-2.25261	0.005	-2.243031	0.005
1.9	-2.36544	0.005	-2.348717	0.005
1.8007	-2.25147	0.005	-2.241846	0.005
1.7005	-2.13185	0.005	-2.127053	0.005
1.6006	-2.00565	0.005	-2.004117	0.005
1.5005	-1.88429	0.005	-1.884278	0.005
1.4006	-1.759494	0.005	-1.759494	0.005
1.3004	-1.636688	0.005	-1.636688	0.005
1.2005	-1.521019	0.005	-1.521019	0.005
1.1004	-1.39407	0.005	-1.39407	0.005
1.0005	-1.266527	0.005	-1.266527	0.005
0.9004	-1.142846	0.005	-1.142846	0.005
0.8004	-1.017565	0.005	-1.017565	0.005
0.7003	-0.889118	0.005	-0.889118	0.005
0.6003	-0.7581713	0.005	-0.7581713	0.005
0.5002	-0.6340744	0.005	-0.6340744	0.005
0.4004	-0.5093851	0.005	-0.5093851	0.005
0.3003	-0.3814673	0.005	-0.3814673	0.005
0.2004	-0.2497989	0.005	-0.2497989	0.005
0.1002	-0.1217723	0.005	-0.1217723	0.005
0.0003	-0.002413935	0.005	-0.002413935	0.005
-0.0996	0.1240545	0.005	0.1240545	0.005
-0.1995	0.253727	0.005	0.253727	0.005
-0.2996	0.3735892	0.005	0.3735892	0.005
-0.3995	0.5053691	0.005	0.5053691	0.005
-0.4997	0.6422378	0.005	0.6422378	0.005
-0.5997	0.7613759	0.005	0.7613759	0.005
-0.6997	0.8849038	0.005	0.8849038	0.005
-0.7997	1.01335	0.005	1.01335	0.005
-0.8997	1.148968	0.005	1.148968	0.005
-0.9997	1.260821	0.005	1.260821	0.005
-1.0997	1.38707	0.005	1.38707	0.005
-1.1998	1.510508	0.005	1.510508	0.005
-1.2998	1.63748	0.005	1.63748	0.005
-1.3996	1.764672	0.005	1.764672	0.005
-1.4996	1.890401	0.005	1.890401	0.005
-1.5997	2.004	0.005	2.002494	0.005
-1.6998	2.13085	0.005	2.126087	0.005
-1.7997	2.25116	0.005	2.241605	0.005
-1.8998	2.36323	0.005	2.346523	0.005
-1.8003	2.24589	0.005	2.236316	0.005
-1.7003	2.12579	0.005	2.121018	0.005
-1.6004	2.00611	0.005	2.004579	0.005
-1.5003	1.87924	0.005	1.879231	0.005
-1.4002	1.766429	0.005	1.766429	0.005
-1.3002	1.635923	0.005	1.635923	0.005
-1.2001	1.519067	0.005	1.519067	0.005
-1.1001	1.388232	0.005	1.388232	0.005
-1.0	1.264002	0.005	1.264002	0.005
-0.9001	1.140849	0.005	1.140849	0.005
-0.8001	1.019188	0.005	1.019188	0.005
-0.7001	0.8884818	0.005	0.8884818	0.005
-0.6001	0.7596876	0.005	0.7596876	0.005
-0.5001	0.6343372	0.005	0.6343372	0.005
-0.4	0.5085291	0.005	0.5085291	0.005
-0.3001	0.3812041	0.005	0.3812041	0.005
-0.2	0.2513789	0.005	0.2513789	0.005
-0.1001	0.1244496	0.005	0.1244496	0.005
-0.0001	2.194422e-05	0.005	2.194422e-05	0.005
0.0998	-0.1192707	0.005	-0.1192707	0.005
0.1999	-0.2534416	0.005	-0.2534416	0.005
0.2999	-0.3772539	0.005	-0.3772539	0.005
0.3999	-0.5140813	0.005	-0.5140813	0.005
0.4999	-0.6292464	0.005	-0.6292464	0.005
0.6	-0.7623856	0.005	-0.7623856	0.005
0.6999	-0.8854092	0.005	-0.8854092	0.005
0.8001	-1.008961	0.005	-1.008961	0.005
0.9	-1.133848	0.005	-1.133848	0.005
1.0	-1.258473	0.005	-1.258473	0.005
1.1	-1.394178	0.005	-1.394178	0.005
1.2	-1.516039	0.005	-1.516039	0.005
1.3	-1.640926	0.005	-1.640926	0.005
1.4	-1.765155	0.005	-1.765155	0.005
1.4999	-1.8784	0.005	-1.878395	0.005
1.6	-2.00913	0.005	-2.007608	0.005
1.7	-2.12422	0.005	-2.11946	0.005
1.8	-2.24884	0.005	-2.239278	0.005
1.8999	-2.36387	0.005	-2.347159	0.005